Time  1 - fast sample rate [s]	Extensometer [V]	Force [V]	SG signal [µm/m]	Extensometer_Scaled [mm/mm]	Force_Scaled [N]
0	0.02567	0.05208	-19.14	0.00128	156.25	
0.1000	0.02570	0.05203	-19.06	0.00128	156.09	
0.2000	0.02570	0.05198	-19.19	0.00128	155.95	
0.3000	0.02570	0.05204	-19.19	0.00128	156.11	
0.4000	0.02570	0.05206	-19.22	0.00128	156.17	
0.5000	0.02567	0.05217	-19.25	0.00128	156.52	
0.6000	0.02569	0.05212	-19.19	0.00128	156.37	
0.7000	0.02568	0.05219	-19.19	0.00128	156.56	
0.8000	0.02568	0.05215	-19.33	0.00128	156.44	
0.9000	0.02568	0.05216	-19.22	0.00128	156.48	
1.000	0.02568	0.05212	-19.19	0.00128	156.36	
1.100	0.02569	0.05213	-19.25	0.00128	156.39	
1.200	0.02562	0.05210	-19.27	0.00128	156.31	
1.300	0.02564	0.05208	-19.30	0.00128	156.25	
1.400	0.02561	0.05215	-19.22	0.00128	156.44	
1.500	0.02558	0.05226	-19.22	0.00128	156.79	
1.600	0.02568	0.05216	-19.43	0.00128	156.48	
1.700	0.02567	0.05208	-19.33	0.00128	156.23	
1.800	0.02564	0.05196	-19.30	0.00128	155.87	
1.900	0.02566	0.05206	-19.33	0.00128	156.18	
2.000	0.02565	0.05215	-19.22	0.00128	156.45	
2.100	0.02567	0.05217	-19.30	0.00128	156.52	
2.200	0.02569	0.05222	-19.22	0.00128	156.67	
2.300	0.02564	0.05217	-19.30	0.00128	156.50	
2.400	0.02569	0.05218	-19.27	0.00128	156.53	
2.500	0.02567	0.05210	-19.33	0.00128	156.29	
2.600	0.02564	0.05215	-19.49	0.00128	156.46	
2.700	0.02566	0.05218	-19.33	0.00128	156.53	
2.800	0.02564	0.05211	-19.27	0.00128	156.34	
2.900	0.02568	0.05206	-19.30	0.00128	156.19	
3.000	0.02570	0.05211	-19.51	0.00128	156.34	
3.100	0.02565	0.05219	-19.35	0.00128	156.57	
3.200	0.02563	0.05213	-19.49	0.00128	156.39	
3.300	0.02570	0.05218	-19.43	0.00129	156.53	
3.400	0.02570	0.05213	-19.33	0.00128	156.39	
3.500	0.02570	0.05200	-19.33	0.00128	156.00	
3.600	0.02570	0.05209	-19.38	0.00128	156.27	
3.700	0.02567	0.05209	-19.41	0.00128	156.27	
3.800	0.02567	0.05211	-19.46	0.00128	156.34	
3.900	0.02569	0.05215	-19.41	0.00128	156.44	
4.000	0.02567	0.05220	-19.57	0.00128	156.60	
4.100	0.02567	0.05210	-19.54	0.00128	156.31	
4.200	0.02564	0.05212	-19.49	0.00128	156.36	
4.300	0.02564	0.05217	-19.57	0.00128	156.51	
4.400	0.02557	0.05212	-19.51	0.00128	156.37	
4.500	0.02566	0.05215	-19.51	0.00128	156.45	
4.600	0.02570	0.05215	-19.57	0.00128	156.46	
4.700	0.02570	0.05216	-19.62	0.00128	156.47	
4.800	0.02567	0.05217	-19.59	0.00128	156.50	
4.900	0.02569	0.05214	-19.54	0.00128	156.43	
5.000	0.02562	0.05219	-19.54	0.00128	156.56	
5.100	0.02569	0.05221	-19.46	0.00128	156.62	
5.200	0.02570	0.05216	-19.54	0.00129	156.47	
5.300	0.02567	0.05219	-19.59	0.00128	156.56	
5.400	0.02570	0.05217	-19.57	0.00128	156.52	
5.500	0.02568	0.05221	-19.41	0.00128	156.63	
5.600	0.02567	0.05219	-19.49	0.00128	156.56	
5.700	0.02567	0.05220	-19.43	0.00128	156.61	
5.800	0.02568	0.05219	-19.46	0.00128	156.56	
5.900	0.02568	0.05216	-19.65	0.00128	156.47	
6.000	0.02569	0.05213	-19.54	0.00128	156.38	
6.100	0.02570	0.05216	-19.62	0.00129	156.49	
6.200	0.02570	0.05224	-19.46	0.00129	156.71	
6.300	0.02570	0.05219	-19.57	0.00129	156.58	
6.400	0.02570	0.05225	-19.51	0.00128	156.74	
6.500	0.02570	0.05225	-19.54	0.00129	156.75	
6.600	0.02571	0.05222	-19.57	0.00129	156.66	
6.700	0.02566	0.05220	-19.81	0.00128	156.60	
6.800	0.02566	0.05214	-19.65	0.00128	156.41	
6.900	0.02565	0.05214	-19.62	0.00128	156.42	
7.000	0.02568	0.05222	-19.59	0.00128	156.65	
7.100	0.02567	0.05224	-19.70	0.00128	156.73	
7.200	0.02561	0.05222	-19.59	0.00128	156.66	
7.300	0.02568	0.05227	-19.57	0.00128	156.82	
7.400	0.02568	0.05222	-19.51	0.00128	156.67	
7.500	0.02568	0.05223	-19.65	0.00128	156.70	
7.600	0.02574	0.05233	-19.67	0.00129	156.98	
7.700	0.02577	0.05230	-19.62	0.00129	156.89	
7.800	0.02574	0.05227	-19.49	0.00129	156.80	
7.900	0.02576	0.05231	-19.57	0.00129	156.92	
8.000	0.02580	0.05233	-19.62	0.00129	156.98	
8.100	0.02575	0.05230	-19.62	0.00129	156.91	
8.200	0.02568	0.05227	-19.73	0.00128	156.80	
8.300	0.02570	0.05220	-19.62	0.00128	156.61	
8.400	0.02567	0.05219	-19.65	0.00128	156.57	
8.500	0.02569	0.05217	-19.43	0.00128	156.52	
8.600	0.02567	0.05220	-19.41	0.00128	156.60	
8.700	0.02570	0.05216	-19.62	0.00128	156.47	
8.800	0.02570	0.05219	-19.46	0.00128	156.58	
8.900	0.02570	0.05219	-19.46	0.00129	156.58	
9.000	0.02570	0.05213	-19.75	0.00129	156.40	
9.100	0.02570	0.05227	-19.62	0.00129	156.80	
9.200	0.02570	0.05214	-19.65	0.00128	156.41	
9.300	0.02570	0.05211	-19.51	0.00128	156.32	
9.400	0.02570	0.05221	-19.65	0.00128	156.64	
9.500	0.02567	0.05232	-19.70	0.00128	156.95	
9.600	0.02565	0.05222	-19.41	0.00128	156.66	
9.700	0.02567	0.05217	-19.54	0.00128	156.51	
9.800	0.02570	0.05218	-19.51	0.00128	156.54	
9.900	0.02568	0.05222	-19.49	0.00128	156.65	
10.00	0.02568	0.05219	-19.46	0.00128	156.57	
10.10	0.02567	0.05217	-19.51	0.00128	156.51	
10.20	0.02573	0.05218	-19.67	0.00129	156.55	
10.30	0.02575	0.05223	-19.65	0.00129	156.68	
10.40	0.02571	0.05219	-19.57	0.00129	156.56	
10.50	0.02571	0.05219	-19.51	0.00129	156.57	
10.60	0.02570	0.05217	-19.49	0.00129	156.52	
10.70	0.02570	0.05225	-19.57	0.00128	156.76	
10.80	0.02570	0.05217	-19.59	0.00128	156.51	
10.90	0.02570	0.05223	-19.46	0.00129	156.69	
11.00	0.02570	0.05221	-19.43	0.00129	156.62	
11.10	0.02570	0.05222	-19.57	0.00129	156.65	
11.20	0.02570	0.05219	-19.57	0.00129	156.58	
11.30	0.02571	0.05218	-19.49	0.00129	156.55	
11.40	0.02570	0.05221	-19.46	0.00129	156.62	
11.50	0.02567	0.05218	-19.46	0.00128	156.54	
11.60	0.02575	0.05223	-19.43	0.00129	156.69	
11.70	0.02585	0.05227	-19.46	0.00129	156.82	
11.80	0.02581	0.05233	-19.51	0.00129	156.98	
11.90	0.02581	0.05239	-19.59	0.00129	157.16	
12.00	0.02571	0.05224	-19.43	0.00129	156.71	
12.10	0.02570	0.05212	-19.49	0.00129	156.35	
12.20	0.02570	0.05218	-19.51	0.00129	156.53	
12.30	0.02570	0.05214	-19.54	0.00128	156.43	
12.40	0.02570	0.05217	-19.51	0.00128	156.50	
12.50	0.02570	0.05220	-19.62	0.00128	156.61	
12.60	0.02570	0.05215	-19.41	0.00128	156.46	
12.70	0.02568	0.05216	-19.59	0.00128	156.47	
12.80	0.02566	0.05216	-19.59	0.00128	156.48	
12.90	0.02569	0.05226	-19.46	0.00128	156.78	
13.00	0.02570	0.05218	-19.41	0.00128	156.54	
13.10	0.02569	0.05215	-19.46	0.00128	156.44	
13.20	0.02570	0.05219	-19.46	0.00128	156.57	
13.30	0.02570	0.05216	-19.41	0.00128	156.47	
13.40	0.02570	0.05223	-19.49	0.00129	156.70	
13.50	0.02570	0.05217	-19.51	0.00129	156.51	
13.60	0.02570	0.05217	-19.59	0.00129	156.50	
13.70	0.02570	0.05224	-19.65	0.00129	156.71	
13.80	0.02570	0.05223	-19.65	0.00128	156.69	
13.90	0.02570	0.05215	-19.59	0.00129	156.46	
14.00	0.02571	0.05213	-19.51	0.00129	156.40	
14.10	0.02570	0.05219	-19.41	0.00129	156.57	
14.20	0.02570	0.05222	-19.43	0.00128	156.66	
14.30	0.02571	0.05226	-19.41	0.00129	156.77	
14.40	0.02573	0.05218	-19.30	0.00129	156.53	
14.50	0.02570	0.05213	-19.25	0.00128	156.39	
14.60	0.02568	0.05211	-19.27	0.00128	156.34	
14.70	0.02567	0.05210	-19.17	0.00128	156.31	
14.80	0.02566	0.05210	-19.27	0.00128	156.29	
14.90	0.02566	0.05209	-19.25	0.00128	156.28	
15.00	0.02566	0.05209	-19.33	0.00128	156.27	
15.10	0.02566	0.05209	-19.41	0.00128	156.27	
15.20	0.02566	0.05209	-19.41	0.00128	156.28	
15.30	0.02566	0.05209	-19.41	0.00128	156.28	
15.40	0.02566	0.05209	-19.38	0.00128	156.28	
15.50	0.02566	0.05209	-19.35	0.00128	156.27	
15.60	0.02566	0.05209	-19.41	0.00128	156.26	
15.70	0.02566	0.05209	-19.54	0.00128	156.26	
15.80	0.02566	0.05209	-19.51	0.00128	156.26	
15.90	0.02566	0.05209	-19.41	0.00128	156.28	
16.00	0.02564	0.05209	-19.43	0.00128	156.28	
16.10	0.01029	0.05200	-19.41	0.00051	156.01	
16.20	0.00153	0.05319	-20.45	0.000077	159.56	
16.30	0.00184	0.05624	-22.29	0.000092	168.73	
16.40	0.00198	0.05994	-24.60	0.000099	179.82	
16.50	0.00208	0.06394	-27.06	0.00010	191.82	
16.60	0.00228	0.06824	-29.75	0.00011	204.71	
16.70	0.00236	0.07267	-32.42	0.00012	218.01	
16.80	0.00255	0.07723	-35.08	0.00013	231.68	
16.90	0.00273	0.08169	-37.67	0.00014	245.07	
17.00	0.00293	0.08590	-40.25	0.00015	257.69	
17.10	0.00304	0.09014	-42.84	0.00015	270.42	
17.20	0.00322	0.09436	-45.32	0.00016	283.09	
17.30	0.00343	0.09878	-48.04	0.00017	296.35	
17.40	0.00355	0.1031	-50.54	0.00018	309.17	
17.50	0.00376	0.1070	-53.02	0.00019	321.08	
17.60	0.00387	0.1109	-55.34	0.00019	332.81	
17.70	0.00402	0.1149	-57.66	0.00020	344.56	
17.80	0.00416	0.1190	-60.09	0.00021	356.90	
17.90	0.00429	0.1229	-62.22	0.00021	368.75	
18.00	0.00447	0.1264	-64.32	0.00022	379.24	
18.10	0.00451	0.1300	-66.40	0.00023	389.86	
18.20	0.00467	0.1335	-68.54	0.00023	400.55	
18.30	0.00481	0.1371	-70.75	0.00024	411.30	
18.40	0.00498	0.1407	-73.02	0.00025	422.18	
18.50	0.00511	0.1440	-74.88	0.00026	432.00	
18.60	0.00522	0.1473	-76.83	0.00026	441.85	
18.70	0.00540	0.1506	-78.99	0.00027	451.68	
18.80	0.00543	0.1541	-81.12	0.00027	462.38	
18.90	0.00560	0.1576	-83.17	0.00028	472.87	
19.00	0.00576	0.1608	-85.01	0.00029	482.32	
19.10	0.00590	0.1639	-86.77	0.00029	491.82	
19.20	0.00603	0.1671	-88.69	0.00030	501.37	
19.30	0.00609	0.1705	-90.88	0.00030	511.57	
19.40	0.00631	0.1739	-92.90	0.00032	521.75	
19.50	0.00635	0.1770	-94.63	0.00032	531.03	
19.60	0.00640	0.1801	-96.53	0.00032	540.18	
19.70	0.00663	0.1831	-98.39	0.00033	549.21	
19.80	0.00669	0.1864	-100.31	0.00033	559.28	
19.90	0.00689	0.1898	-102.18	0.00034	569.39	
20.00	0.00698	0.1927	-104.10	0.00035	578.22	
20.10	0.00699	0.1957	-105.80	0.00035	587.21	
20.20	0.00723	0.1987	-107.72	0.00036	596.07	
20.30	0.00731	0.2018	-109.46	0.00037	605.48	
20.40	0.00746	0.2051	-111.27	0.00037	615.19	
20.50	0.00759	0.2079	-112.92	0.00038	623.72	
20.60	0.00760	0.2107	-114.84	0.00038	631.98	
20.70	0.00775	0.2134	-116.49	0.00039	640.32	
20.80	0.00789	0.2164	-118.25	0.00039	649.17	
20.90	0.00792	0.2194	-119.83	0.00040	658.31	
21.00	0.00808	0.2222	-121.51	0.00040	666.54	
21.10	0.00820	0.2247	-123.05	0.00041	674.11	
21.20	0.00823	0.2273	-124.68	0.00041	682.00	
21.30	0.00836	0.2301	-126.22	0.00042	690.21	
21.40	0.00849	0.2331	-127.96	0.00042	699.30	
21.50	0.00853	0.2358	-129.56	0.00043	707.29	
21.60	0.00860	0.2382	-130.92	0.00043	714.59	
21.70	0.00880	0.2407	-132.43	0.00044	722.22	
21.80	0.00885	0.2434	-134.22	0.00044	730.10	
21.90	0.00894	0.2463	-135.79	0.00045	738.83	
22.00	0.00914	0.2488	-137.29	0.00046	746.54	
22.10	0.00916	0.2512	-138.70	0.00046	753.67	
22.20	0.00917	0.2536	-140.09	0.00046	760.66	
22.30	0.00932	0.2562	-141.58	0.00047	768.67	
22.40	0.00946	0.2589	-143.15	0.00047	776.84	
22.50	0.00947	0.2614	-144.70	0.00047	784.19	
22.60	0.00949	0.2637	-146.24	0.00047	791.18	
22.70	0.00974	0.2660	-147.42	0.00049	797.91	
22.80	0.00979	0.2685	-149.04	0.00049	805.56	
22.90	0.00990	0.2712	-150.51	0.00049	813.48	
23.00	0.01006	0.2736	-151.87	0.00050	820.76	
23.10	0.01011	0.2758	-153.12	0.00051	827.45	
23.20	0.01011	0.2779	-154.43	0.00051	833.68	
23.30	0.01025	0.2803	-156.13	0.00051	840.95	
23.40	0.01039	0.2827	-157.55	0.00052	848.08	
23.50	0.01040	0.2850	-158.59	0.00052	854.97	
23.60	0.01042	0.2872	-159.84	0.00052	861.60	
23.70	0.01053	0.2893	-161.01	0.00053	867.88	
23.80	0.01069	0.2915	-162.40	0.00053	874.45	
23.90	0.01076	0.2940	-163.89	0.00054	881.91	
24.00	0.01088	0.2962	-165.12	0.00054	888.47	
24.10	0.01094	0.2981	-166.21	0.00055	894.30	
24.20	0.01101	0.3000	-167.44	0.00055	899.99	
24.30	0.01103	0.3021	-168.53	0.00055	906.28	
24.40	0.01108	0.3044	-169.92	0.00055	913.19	
24.50	0.01123	0.3065	-171.19	0.00056	919.45	
24.60	0.01134	0.3083	-172.26	0.00057	924.99	
24.70	0.01137	0.3102	-173.46	0.00057	930.51	
24.80	0.01141	0.3120	-174.58	0.00057	935.97	
24.90	0.01156	0.3141	-175.75	0.00058	942.20	
25.00	0.01166	0.3158	-177.01	0.00058	947.37	
25.10	0.01166	0.3174	-177.97	0.00058	952.13	
25.20	0.01173	0.3190	-179.27	0.00059	957.06	
25.30	0.01185	0.3205	-180.02	0.00059	961.59	
25.40	0.01196	0.3225	-181.19	0.00060	967.48	
25.50	0.01196	0.3244	-182.58	0.00060	973.11	
25.60	0.01196	0.3259	-183.56	0.00060	977.78	
25.70	0.01208	0.3275	-184.39	0.00060	982.57	
25.80	0.01221	0.3292	-185.48	0.00061	987.69	
25.90	0.01227	0.3310	-186.66	0.00061	992.99	
26.00	0.01229	0.3327	-187.64	0.00061	998.03	
26.10	0.01240	0.3340	-188.52	0.00062	1002.1	
26.20	0.01245	0.3351	-189.43	0.00062	1005.3	
26.30	0.01258	0.3361	-190.04	0.00063	1008.3	
26.40	0.01259	0.3373	-190.97	0.00063	1011.9	
26.50	0.01259	0.3387	-191.83	0.00063	1016.1	
26.60	0.01262	0.3398	-192.76	0.00063	1019.5	
26.70	0.01266	0.3409	-193.53	0.00063	1022.7	
26.80	0.01284	0.3421	-194.36	0.00064	1026.3	
26.90	0.01289	0.3435	-195.61	0.00064	1030.4	
27.00	0.01291	0.3450	-196.52	0.00065	1035.0	
27.10	0.01293	0.3463	-197.37	0.00065	1038.9	
27.20	0.01297	0.3474	-198.28	0.00065	1042.3	
27.30	0.01317	0.3486	-199.00	0.00066	1045.8	
27.40	0.01319	0.3497	-199.99	0.00066	1049.2	
27.50	0.01321	0.3512	-200.97	0.00066	1053.6	
27.60	0.01321	0.3524	-201.85	0.00066	1057.3	
27.70	0.01329	0.3533	-202.57	0.00066	1059.9	
27.80	0.01339	0.3547	-203.37	0.00067	1064.0	
27.90	0.01351	0.3562	-204.09	0.00068	1068.5	
28.00	0.01356	0.3577	-205.37	0.00068	1073.0	
28.10	0.01356	0.3588	-206.20	0.00068	1076.5	
28.20	0.01366	0.3600	-206.97	0.00068	1079.9	
28.30	0.01365	0.3613	-207.93	0.00068	1083.9	
28.40	0.01379	0.3629	-208.78	0.00069	1088.7	
28.50	0.01383	0.3643	-209.85	0.00069	1093.0	
28.60	0.01384	0.3657	-210.75	0.00069	1097.0	
28.70	0.01393	0.3669	-211.61	0.00070	1100.6	
28.80	0.01397	0.3682	-212.57	0.00070	1104.7	
28.90	0.01411	0.3698	-213.69	0.00071	1109.5	
29.00	0.01416	0.3715	-214.51	0.00071	1114.4	
29.10	0.01416	0.3729	-215.50	0.00071	1118.6	
29.20	0.01416	0.3741	-216.27	0.00071	1122.2	
29.30	0.01416	0.3756	-217.10	0.00071	1126.7	
29.40	0.01429	0.3771	-218.14	0.00071	1131.4	
29.50	0.01443	0.3787	-219.13	0.00072	1136.1	
29.60	0.01446	0.3802	-220.00	0.00072	1140.6	
29.70	0.01447	0.3814	-220.64	0.00072	1144.3	
29.80	0.01446	0.3828	-221.71	0.00072	1148.5	
29.90	0.01459	0.3846	-222.75	0.00073	1153.8	
30.00	0.01476	0.3862	-223.74	0.00074	1158.5	
30.10	0.01478	0.3877	-224.56	0.00074	1163.1	
30.20	0.01479	0.3889	-225.79	0.00074	1166.8	
30.30	0.01480	0.3903	-226.46	0.00074	1170.9	
30.40	0.01486	0.3920	-227.39	0.00074	1176.1	
30.50	0.01496	0.3938	-228.48	0.00075	1181.4	
30.60	0.01510	0.3953	-229.31	0.00076	1186.0	
30.70	0.01517	0.3965	-229.87	0.00076	1189.6	
30.80	0.01513	0.3979	-230.96	0.00076	1193.6	
30.90	0.01524	0.3997	-231.84	0.00076	1199.0	
31.00	0.01523	0.4015	-233.04	0.00076	1204.6	
31.10	0.01532	0.4028	-233.92	0.00077	1208.5	
31.20	0.01538	0.4042	-234.67	0.00077	1212.5	
31.30	0.01543	0.4056	-235.57	0.00077	1216.7	
31.40	0.01557	0.4073	-236.51	0.00078	1221.8	
31.50	0.01568	0.4090	-237.76	0.00078	1227.1	
31.60	0.01569	0.4105	-238.59	0.00078	1231.4	
31.70	0.01573	0.4118	-239.46	0.00079	1235.3	
31.80	0.01572	0.4132	-240.18	0.00079	1239.5	
31.90	0.01571	0.4147	-240.93	0.00079	1244.1	
32.00	0.01574	0.4164	-242.26	0.00079	1249.3	
32.10	0.01583	0.4181	-243.12	0.00079	1254.2	
32.20	0.01601	0.4194	-243.97	0.00080	1258.1	
32.30	0.01602	0.4207	-244.69	0.00080	1262.0	
32.40	0.01602	0.4222	-245.68	0.00080	1266.5	
32.50	0.01603	0.4240	-246.77	0.00080	1272.0	
32.60	0.01608	0.4256	-247.76	0.00080	1276.8	
32.70	0.01625	0.4270	-248.61	0.00081	1280.9	
32.80	0.01633	0.4284	-249.54	0.00082	1285.1	
32.90	0.01633	0.4300	-250.45	0.00082	1289.9	
33.00	0.01638	0.4317	-251.38	0.00082	1295.2	
33.10	0.01652	0.4335	-252.58	0.00083	1300.4	
33.20	0.01661	0.4349	-253.33	0.00083	1304.6	
33.30	0.01664	0.4362	-254.10	0.00083	1308.6	
33.40	0.01664	0.4378	-255.11	0.00083	1313.4	
33.50	0.01665	0.4395	-256.15	0.00083	1318.5	
33.60	0.01670	0.4412	-257.22	0.00083	1323.5	
33.70	0.01684	0.4426	-258.05	0.00084	1327.8	
33.80	0.01690	0.4439	-258.68	0.00085	1331.8	
33.90	0.01693	0.4455	-259.83	0.00085	1336.4	
34.00	0.01695	0.4472	-260.82	0.00085	1341.6	
34.10	0.01698	0.4488	-261.94	0.00085	1346.5	
34.20	0.01707	0.4502	-262.74	0.00085	1350.6	
34.30	0.01714	0.4517	-263.62	0.00086	1355.1	
34.40	0.01726	0.4532	-264.55	0.00086	1359.5	
34.50	0.01730	0.4548	-265.56	0.00086	1364.5	
34.60	0.01729	0.4566	-266.66	0.00086	1369.8	
34.70	0.01729	0.4580	-267.46	0.00086	1373.9	
34.80	0.01747	0.4594	-268.07	0.00087	1378.3	
34.90	0.01766	0.4610	-269.03	0.00088	1382.9	
35.00	0.01768	0.4626	-270.07	0.00088	1387.8	
35.10	0.01764	0.4643	-271.27	0.00088	1393.0	
35.20	0.01763	0.4657	-272.09	0.00088	1397.1	
35.30	0.01771	0.4671	-272.79	0.00089	1401.3	
35.40	0.01779	0.4685	-273.83	0.00089	1405.5	
35.50	0.01787	0.4701	-274.87	0.00089	1410.4	
35.60	0.01791	0.4719	-275.91	0.00090	1415.8	
35.70	0.01793	0.4733	-276.79	0.00090	1420.0	
35.80	0.01797	0.4747	-277.53	0.00090	1424.2	
35.90	0.01808	0.4762	-278.44	0.00090	1428.7	
36.00	0.01816	0.4778	-279.42	0.00091	1433.4	
36.10	0.01823	0.4796	-280.30	0.00091	1438.7	
36.20	0.01822	0.4809	-281.34	0.00091	1442.8	
36.30	0.01826	0.4823	-282.17	0.00091	1446.9	
36.40	0.01831	0.4838	-283.08	0.00092	1451.4	
36.50	0.01846	0.4853	-283.93	0.00092	1456.0	
36.60	0.01852	0.4871	-284.97	0.00093	1461.2	
36.70	0.01852	0.4886	-286.01	0.00093	1465.7	
36.80	0.01857	0.4898	-286.78	0.00093	1469.3	
36.90	0.01864	0.4914	-287.64	0.00093	1474.1	
37.00	0.01874	0.4929	-288.62	0.00094	1478.6	
37.10	0.01883	0.4946	-289.61	0.00094	1483.9	
37.20	0.01883	0.4961	-290.43	0.00094	1488.3	
37.30	0.01883	0.4974	-291.29	0.00094	1492.3	
37.40	0.01889	0.4989	-292.17	0.00094	1496.7	
37.50	0.01906	0.5004	-293.07	0.00095	1501.1	
37.60	0.01917	0.5022	-294.11	0.00096	1506.5	
37.70	0.01915	0.5037	-294.83	0.00096	1511.1	
37.80	0.01914	0.5050	-295.69	0.00096	1514.9	
37.90	0.01916	0.5064	-296.51	0.00096	1519.2	
38.00	0.01923	0.5078	-297.50	0.00096	1523.5	
38.10	0.01939	0.5096	-298.75	0.00097	1528.8	
38.20	0.01946	0.5111	-299.50	0.00097	1533.4	
38.30	0.01945	0.5125	-300.32	0.00097	1537.5	
38.40	0.01945	0.5139	-301.04	0.00097	1541.7	
38.50	0.01948	0.5154	-302.16	0.00097	1546.2	
38.60	0.01962	0.5171	-303.20	0.00098	1551.2	
38.70	0.01971	0.5187	-304.11	0.00099	1556.2	
38.80	0.01976	0.5200	-304.83	0.00099	1560.1	
38.90	0.01976	0.5214	-305.74	0.00099	1564.2	
39.00	0.01978	0.5230	-306.62	0.00099	1569.1	
39.10	0.01989	0.5247	-307.65	0.00099	1574.0	
39.20	0.01998	0.5262	-308.59	0.00100	1578.7	
39.30	0.02006	0.5275	-309.33	0.00100	1582.5	
39.40	0.02007	0.5289	-310.24	0.00100	1586.7	
39.50	0.02007	0.5304	-311.15	0.00100	1591.2	
39.60	0.02015	0.5321	-312.05	0.00101	1596.2	
39.70	0.02027	0.5336	-313.07	0.00101	1600.7	
39.80	0.02033	0.5349	-313.81	0.00102	1604.8	
39.90	0.02038	0.5363	-314.72	0.00102	1609.0	
40.00	0.02038	0.5377	-315.71	0.00102	1613.2	
40.10	0.02042	0.5395	-316.51	0.00102	1618.4	
40.20	0.02050	0.5410	-317.46	0.00102	1623.0	
40.30	0.02061	0.5423	-318.37	0.00103	1626.9	
40.40	0.02066	0.5436	-319.12	0.00103	1630.9	
40.50	0.02070	0.5451	-320.02	0.00103	1635.4	
40.60	0.02070	0.5468	-321.14	0.00104	1640.4	
40.70	0.02076	0.5484	-322.10	0.00104	1645.2	
40.80	0.02085	0.5497	-322.90	0.00104	1649.0	
40.90	0.02092	0.5510	-323.68	0.00105	1653.0	
41.00	0.02097	0.5524	-324.58	0.00105	1657.2	
41.10	0.02106	0.5541	-325.52	0.00105	1662.2	
41.20	0.02106	0.5558	-326.58	0.00105	1667.5	
41.30	0.02113	0.5571	-327.51	0.00106	1671.4	
41.40	0.02119	0.5584	-328.29	0.00106	1675.3	
41.50	0.02130	0.5599	-329.19	0.00106	1679.6	
41.60	0.02133	0.5615	-330.21	0.00107	1684.5	
41.70	0.02132	0.5633	-331.19	0.00107	1690.0	
41.80	0.02138	0.5648	-332.02	0.00107	1694.3	
41.90	0.02154	0.5661	-332.71	0.00108	1698.3	
42.00	0.02162	0.5674	-333.78	0.00108	1702.3	
42.10	0.02165	0.5691	-334.69	0.00108	1707.3	
42.20	0.02164	0.5709	-335.81	0.00108	1712.7	
42.30	0.02163	0.5724	-336.76	0.00108	1717.2	
42.40	0.02177	0.5738	-337.67	0.00109	1721.3	
42.50	0.02186	0.5751	-338.36	0.00109	1725.4	
42.60	0.02195	0.5769	-339.56	0.00110	1730.7	
42.70	0.02195	0.5787	-340.68	0.00110	1736.1	
42.80	0.02201	0.5802	-341.48	0.00110	1740.7	
42.90	0.02201	0.5815	-342.28	0.00110	1744.6	
43.00	0.02207	0.5829	-343.08	0.00110	1748.8	
43.10	0.02226	0.5847	-344.28	0.00111	1754.0	
43.20	0.02227	0.5865	-345.32	0.00111	1759.5	
43.30	0.02226	0.5880	-346.10	0.00111	1764.0	
43.40	0.02234	0.5893	-347.05	0.00112	1767.8	
43.50	0.02238	0.5907	-347.96	0.00112	1772.2	
43.60	0.02253	0.5924	-348.79	0.00113	1777.3	
43.70	0.02257	0.5943	-349.99	0.00113	1782.9	
43.80	0.02257	0.5958	-350.92	0.00113	1787.4	
43.90	0.02259	0.5972	-351.88	0.00113	1791.6	
44.00	0.02268	0.5986	-352.65	0.00113	1795.9	
44.10	0.02288	0.6003	-353.75	0.00114	1800.8	
44.20	0.02289	0.6021	-354.84	0.00114	1806.3	
44.30	0.02288	0.6036	-355.85	0.00114	1810.9	
44.40	0.02292	0.6051	-356.57	0.00115	1815.2	
44.50	0.02298	0.6066	-357.40	0.00115	1819.8	
44.60	0.02312	0.6081	-358.49	0.00116	1824.4	
44.70	0.02319	0.6099	-359.45	0.00116	1829.7	
44.80	0.02319	0.6115	-360.49	0.00116	1834.5	
44.90	0.02319	0.6129	-361.37	0.00116	1838.7	
45.00	0.02326	0.6143	-362.25	0.00116	1842.9	
45.10	0.02334	0.6159	-363.21	0.00117	1847.8	
45.20	0.02348	0.6178	-364.30	0.00117	1853.3	
45.30	0.02350	0.6193	-365.21	0.00118	1857.8	
45.40	0.02350	0.6207	-366.06	0.00118	1862.1	
45.50	0.02351	0.6221	-366.73	0.00118	1866.3	
45.60	0.02361	0.6237	-367.74	0.00118	1871.0	
45.70	0.02372	0.6255	-368.97	0.00119	1876.6	
45.80	0.02381	0.6272	-369.90	0.00119	1881.6	
45.90	0.02381	0.6286	-370.86	0.00119	1885.9	
46.00	0.02383	0.6301	-371.93	0.00119	1890.2	
46.10	0.02405	0.6316	-372.75	0.00120	1894.9	
46.20	0.02413	0.6335	-373.74	0.00121	1900.4	
46.30	0.02413	0.6351	-374.78	0.00121	1905.3	
46.40	0.02413	0.6365	-375.61	0.00121	1909.6	
46.50	0.02416	0.6380	-376.59	0.00121	1914.0	
46.60	0.02430	0.6396	-377.47	0.00121	1918.8	
46.70	0.02440	0.6414	-378.67	0.00122	1924.1	
46.80	0.02444	0.6432	-379.74	0.00122	1929.6	
46.90	0.02448	0.6447	-380.70	0.00122	1934.0	
47.00	0.02453	0.6461	-381.55	0.00123	1938.3	
47.10	0.02466	0.6478	-382.46	0.00123	1943.4	
47.20	0.02476	0.6495	-383.58	0.00124	1948.5	
47.30	0.02476	0.6513	-384.62	0.00124	1953.8	
47.40	0.02476	0.6528	-385.47	0.00124	1958.4	
47.50	0.02481	0.6542	-386.61	0.00124	1962.7	
47.60	0.02501	0.6558	-387.44	0.00125	1967.4	
47.70	0.02505	0.6576	-388.27	0.00125	1972.8	
47.80	0.02507	0.6594	-389.44	0.00125	1978.3	
47.90	0.02507	0.6609	-390.37	0.00125	1982.8	
48.00	0.02512	0.6626	-391.44	0.00126	1987.7	
48.10	0.02525	0.6640	-392.51	0.00126	1992.0	
48.20	0.02536	0.6658	-393.49	0.00127	1997.5	
48.30	0.02537	0.6677	-394.37	0.00127	2003.1	
48.40	0.02538	0.6692	-395.28	0.00127	2007.6	
48.50	0.02544	0.6708	-396.45	0.00127	2012.4	
48.60	0.02557	0.6723	-397.38	0.00128	2017.0	
48.70	0.02567	0.6741	-398.58	0.00128	2022.4	
48.80	0.02570	0.6759	-399.44	0.00128	2027.8	
48.90	0.02570	0.6774	-400.42	0.00128	2032.1	
49.00	0.02573	0.6790	-401.33	0.00129	2036.9	
49.10	0.02590	0.6805	-402.26	0.00130	2041.5	
49.20	0.02598	0.6822	-403.44	0.00130	2046.7	
49.30	0.02600	0.6840	-404.58	0.00130	2052.1	
49.40	0.02603	0.6856	-405.57	0.00130	2056.9	
49.50	0.02605	0.6871	-406.55	0.00130	2061.4	
49.60	0.02619	0.6888	-407.19	0.00131	2066.4	
49.70	0.02627	0.6905	-408.34	0.00131	2071.5	
49.80	0.02631	0.6923	-409.30	0.00132	2076.9	
49.90	0.02631	0.6939	-410.42	0.00132	2081.6	
50.00	0.02638	0.6954	-411.25	0.00132	2086.1	
50.10	0.02651	0.6970	-412.23	0.00133	2091.0	
50.20	0.02663	0.6986	-413.43	0.00133	2095.9	
50.30	0.02662	0.7006	-414.42	0.00133	2101.7	
50.40	0.02662	0.7022	-415.46	0.00133	2106.7	
50.50	0.02665	0.7037	-416.28	0.00133	2111.0	
50.60	0.02675	0.7053	-417.32	0.00134	2115.8	
50.70	0.02689	0.7070	-418.52	0.00134	2120.9	
50.80	0.02694	0.7088	-419.56	0.00135	2126.4	
50.90	0.02691	0.7106	-420.58	0.00135	2131.7	
51.00	0.02694	0.7121	-421.46	0.00135	2136.2	
51.10	0.02702	0.7137	-422.44	0.00135	2141.2	
51.20	0.02712	0.7153	-423.51	0.00136	2145.8	
51.30	0.02724	0.7172	-424.47	0.00136	2151.6	
51.40	0.02723	0.7189	-425.53	0.00136	2156.8	
51.50	0.02728	0.7204	-426.49	0.00136	2161.1	
51.60	0.02729	0.7221	-427.35	0.00136	2166.4	
51.70	0.02745	0.7236	-428.52	0.00137	2170.9	
51.80	0.02756	0.7256	-429.75	0.00138	2176.9	
51.90	0.02756	0.7274	-430.87	0.00138	2182.2	
52.00	0.02756	0.7289	-431.59	0.00138	2186.6	
52.10	0.02760	0.7306	-432.65	0.00138	2191.8	
52.20	0.02782	0.7323	-433.88	0.00139	2197.0	
52.30	0.02788	0.7342	-435.02	0.00139	2202.5	
52.40	0.02787	0.7360	-436.22	0.00139	2208.0	
52.50	0.02787	0.7375	-436.89	0.00139	2212.5	
52.60	0.02795	0.7391	-437.80	0.00140	2217.3	
52.70	0.02807	0.7408	-438.81	0.00140	2222.3	
52.80	0.02816	0.7428	-440.30	0.00141	2228.3	
52.90	0.02819	0.7447	-441.18	0.00141	2234.0	
53.00	0.02820	0.7462	-442.25	0.00141	2238.6	
53.10	0.02834	0.7478	-443.10	0.00142	2243.4	
53.20	0.02848	0.7495	-444.30	0.00142	2248.5	
53.30	0.02850	0.7513	-445.55	0.00142	2254.0	
53.40	0.02850	0.7532	-446.41	0.00142	2259.7	
53.50	0.02854	0.7548	-447.37	0.00143	2264.4	
53.60	0.02868	0.7563	-448.27	0.00143	2268.9	
53.70	0.02881	0.7580	-449.42	0.00144	2273.9	
53.80	0.02881	0.7598	-450.70	0.00144	2279.5	
53.90	0.02881	0.7619	-451.79	0.00144	2285.6	
54.00	0.02881	0.7635	-452.67	0.00144	2290.5	
54.10	0.02891	0.7651	-453.58	0.00145	2295.3	
54.20	0.02901	0.7667	-454.62	0.00145	2300.2	
54.30	0.02909	0.7686	-455.76	0.00145	2305.9	
54.40	0.02912	0.7706	-456.99	0.00146	2311.9	
54.50	0.02915	0.7723	-458.00	0.00146	2316.8	
54.60	0.02930	0.7737	-458.86	0.00147	2321.1	
54.70	0.02940	0.7754	-459.90	0.00147	2326.2	
54.80	0.02945	0.7773	-461.15	0.00147	2331.9	
54.90	0.02950	0.7793	-462.30	0.00148	2338.0	
55.00	0.02968	0.7811	-463.31	0.00148	2343.2	
55.10	0.02973	0.7826	-464.27	0.00149	2347.9	
55.20	0.02977	0.7844	-465.39	0.00149	2353.1	
55.30	0.02975	0.7862	-466.61	0.00149	2358.6	
55.40	0.02977	0.7883	-467.68	0.00149	2364.8	
55.50	0.02996	0.7900	-468.83	0.00150	2370.0	
55.60	0.03006	0.7916	-469.79	0.00150	2374.8	
55.70	0.03006	0.7931	-470.64	0.00150	2379.3	
55.80	0.03010	0.7948	-471.87	0.00151	2384.5	
55.90	0.03014	0.7970	-473.07	0.00151	2390.9	
56.00	0.03026	0.7987	-474.16	0.00151	2396.0	
56.10	0.03037	0.8003	-475.17	0.00152	2400.8	
56.20	0.03039	0.8020	-476.10	0.00152	2406.1	
56.30	0.03042	0.8038	-477.20	0.00152	2411.3	
56.40	0.03057	0.8058	-478.58	0.00153	2417.5	
56.50	0.03067	0.8076	-479.54	0.00153	2422.7	
56.60	0.03069	0.8092	-480.45	0.00153	2427.7	
56.70	0.03069	0.8110	-481.68	0.00153	2433.0	
56.80	0.03086	0.8126	-482.64	0.00154	2437.9	
56.90	0.03098	0.8148	-483.89	0.00155	2444.3	
57.00	0.03099	0.8166	-484.98	0.00155	2449.9	
57.10	0.03101	0.8183	-485.83	0.00155	2454.9	
57.20	0.03107	0.8199	-486.95	0.00155	2459.8	
57.30	0.03115	0.8217	-488.13	0.00156	2465.1	
57.40	0.03126	0.8238	-489.62	0.00156	2471.5	
57.50	0.03130	0.8256	-490.37	0.00156	2476.8	
57.60	0.03131	0.8273	-491.38	0.00157	2481.8	
57.70	0.03139	0.8290	-492.61	0.00157	2487.0	
57.80	0.03151	0.8308	-493.80	0.00158	2492.3	
57.90	0.03161	0.8329	-494.84	0.00158	2498.6	
58.00	0.03162	0.8347	-496.20	0.00158	2504.0	
58.10	0.03164	0.8362	-497.16	0.00158	2508.7	
58.20	0.03169	0.8380	-498.18	0.00158	2514.1	
58.30	0.03189	0.8398	-499.38	0.00159	2519.5	
58.40	0.03193	0.8419	-500.79	0.00160	2525.8	
58.50	0.03194	0.8438	-501.91	0.00160	2531.5	
58.60	0.03209	0.8456	-502.84	0.00160	2536.7	
58.70	0.03217	0.8472	-503.80	0.00161	2541.7	
58.80	0.03220	0.8491	-504.73	0.00161	2547.3	
58.90	0.03224	0.8513	-506.17	0.00161	2553.8	
59.00	0.03225	0.8531	-507.27	0.00161	2559.3	
59.10	0.03244	0.8547	-508.28	0.00162	2564.1	
59.20	0.03247	0.8565	-509.21	0.00162	2569.6	
59.30	0.03251	0.8582	-510.47	0.00163	2574.7	
59.40	0.03257	0.8604	-511.67	0.00163	2581.1	
59.50	0.03257	0.8623	-512.76	0.00163	2586.8	
59.60	0.03269	0.8639	-514.04	0.00163	2591.7	
59.70	0.03284	0.8657	-515.05	0.00164	2597.0	
59.80	0.03286	0.8677	-516.28	0.00164	2603.0	
59.90	0.03292	0.8698	-517.69	0.00165	2609.3	
60.00	0.03304	0.8716	-518.78	0.00165	2614.9	
60.10	0.03316	0.8734	-519.77	0.00166	2620.2	
60.20	0.03319	0.8752	-521.00	0.00166	2625.6	
60.30	0.03319	0.8771	-522.12	0.00166	2631.3	
60.40	0.03325	0.8792	-523.47	0.00166	2637.5	
60.50	0.03331	0.8809	-524.43	0.00167	2642.8	
60.60	0.03344	0.8826	-525.50	0.00167	2647.9	
60.70	0.03349	0.8845	-526.59	0.00167	2653.4	
60.80	0.03353	0.8865	-527.85	0.00168	2659.4	
60.90	0.03361	0.8885	-528.97	0.00168	2665.6	
61.00	0.03378	0.8904	-530.11	0.00169	2671.1	
61.10	0.03381	0.8921	-531.15	0.00169	2676.4	
61.20	0.03382	0.8939	-532.19	0.00169	2681.7	
61.30	0.03386	0.8958	-533.42	0.00169	2687.3	
61.40	0.03400	0.8978	-534.80	0.00170	2693.5	
61.50	0.03407	0.8996	-535.98	0.00170	2698.8	
61.60	0.03412	0.9013	-536.86	0.00171	2704.0	
61.70	0.03415	0.9032	-538.14	0.00171	2709.6	
61.80	0.03420	0.9051	-539.31	0.00171	2715.3	
61.90	0.03435	0.9073	-540.75	0.00172	2722.0	
62.00	0.03442	0.9092	-541.73	0.00172	2727.5	
62.10	0.03444	0.9108	-542.83	0.00172	2732.5	
62.20	0.03446	0.9126	-543.84	0.00172	2737.7	
62.30	0.03459	0.9146	-545.04	0.00173	2743.8	
62.40	0.03472	0.9167	-546.40	0.00174	2750.2	
62.50	0.03474	0.9186	-547.55	0.00174	2755.9	
62.60	0.03477	0.9203	-548.48	0.00174	2760.8	
62.70	0.03492	0.9219	-549.65	0.00175	2765.8	
62.80	0.03500	0.9239	-550.75	0.00175	2771.7	
62.90	0.03505	0.9261	-552.18	0.00175	2778.2	
63.00	0.03505	0.9279	-553.14	0.00175	2783.6	
63.10	0.03519	0.9295	-554.10	0.00176	2788.4	
63.20	0.03530	0.9312	-555.28	0.00176	2793.6	
63.30	0.03536	0.9332	-556.45	0.00177	2799.5	
63.40	0.03536	0.9353	-557.92	0.00177	2805.8	
63.50	0.03543	0.9372	-559.01	0.00177	2811.7	
63.60	0.03559	0.9389	-560.05	0.00178	2816.7	
63.70	0.03565	0.9408	-561.22	0.00178	2822.3	
63.80	0.03567	0.9426	-562.26	0.00178	2827.9	
63.90	0.03568	0.9448	-563.65	0.00178	2834.3	
64.00	0.03588	0.9467	-564.95	0.00179	2840.1	
64.10	0.03596	0.9484	-566.10	0.00180	2845.3	
64.20	0.03601	0.9502	-567.06	0.00180	2850.6	
64.30	0.03605	0.9521	-568.15	0.00180	2856.2	
64.40	0.03607	0.9542	-569.51	0.00180	2862.7	
64.50	0.03624	0.9564	-570.77	0.00181	2869.1	
64.60	0.03631	0.9580	-571.88	0.00182	2874.1	
64.70	0.03630	0.9598	-572.82	0.00182	2879.3	
64.80	0.03635	0.9616	-574.04	0.00182	2884.8	
64.90	0.03648	0.9637	-575.40	0.00182	2891.2	
65.00	0.03659	0.9660	-576.68	0.00183	2897.9	
65.10	0.03662	0.9677	-577.91	0.00183	2903.1	
65.20	0.03663	0.9695	-579.11	0.00183	2908.5	
65.30	0.03673	0.9714	-580.36	0.00184	2914.1	
65.40	0.03687	0.9736	-581.43	0.00184	2920.7	
65.50	0.03692	0.9758	-582.95	0.00185	2927.3	
65.60	0.03695	0.9775	-584.01	0.00185	2932.6	
65.70	0.03715	0.9793	-585.24	0.00186	2937.9	
65.80	0.03720	0.9812	-586.20	0.00186	2943.5	
65.90	0.03723	0.9833	-587.88	0.00186	2949.9	
66.00	0.03725	0.9855	-589.11	0.00186	2956.5	
66.10	0.03741	0.9872	-590.15	0.00187	2961.7	
66.20	0.03751	0.9891	-591.29	0.00188	2967.2	
66.30	0.03753	0.9910	-592.22	0.00188	2973.0	
66.40	0.03763	0.9931	-593.72	0.00188	2979.2	
66.50	0.03778	0.9951	-594.73	0.00189	2985.3	
66.60	0.03784	0.9969	-596.06	0.00189	2990.7	
66.70	0.03786	0.9988	-597.26	0.00189	2996.3	
66.80	0.03786	1.001	-598.41	0.00189	3002.0	
66.90	0.03797	1.003	-599.69	0.00190	3008.3	
67.00	0.03816	1.005	-600.86	0.00191	3014.9	
67.10	0.03818	1.007	-602.25	0.00191	3020.4	
67.20	0.03819	1.009	-603.45	0.00191	3026.2	
67.30	0.03825	1.011	-604.75	0.00191	3031.8	
67.40	0.03836	1.013	-605.93	0.00192	3038.1	
67.50	0.03848	1.015	-607.10	0.00192	3044.7	
67.60	0.03849	1.017	-608.59	0.00192	3050.3	
67.70	0.03856	1.019	-609.61	0.00193	3055.8	
67.80	0.03868	1.020	-610.70	0.00193	3061.0	
67.90	0.03879	1.022	-612.03	0.00194	3067.2	
68.00	0.03884	1.025	-613.36	0.00194	3074.5	
68.10	0.03886	1.027	-614.48	0.00194	3080.2	
68.20	0.03898	1.029	-615.58	0.00195	3085.8	
68.30	0.03906	1.030	-616.78	0.00195	3091.4	
68.40	0.03910	1.032	-618.19	0.00196	3097.1	
68.50	0.03916	1.035	-619.36	0.00196	3103.8	
68.60	0.03933	1.037	-620.69	0.00197	3109.9	
68.70	0.03940	1.038	-621.84	0.00197	3115.3	
68.80	0.03942	1.040	-623.01	0.00197	3121.2	
68.90	0.03944	1.043	-624.37	0.00197	3127.6	
69.00	0.03965	1.045	-625.71	0.00198	3134.1	
69.10	0.03973	1.047	-626.91	0.00199	3139.6	
69.20	0.03974	1.048	-628.19	0.00199	3145.2	
69.30	0.03986	1.050	-629.25	0.00199	3151.1	
69.40	0.03996	1.053	-630.50	0.00200	3157.7	
69.50	0.04003	1.055	-632.05	0.00200	3164.0	
69.60	0.04005	1.057	-633.22	0.00200	3169.5	
69.70	0.04013	1.058	-634.32	0.00201	3175.0	
69.80	0.04022	1.060	-635.60	0.00201	3181.0	
69.90	0.04032	1.062	-636.82	0.00202	3187.3	
70.00	0.04036	1.065	-638.26	0.00202	3194.0	
70.10	0.04039	1.067	-639.30	0.00202	3199.7	
70.20	0.04049	1.068	-640.63	0.00202	3205.5	
70.30	0.04066	1.070	-641.78	0.00203	3211.2	
70.40	0.04067	1.072	-643.22	0.00203	3217.5	
70.50	0.04071	1.075	-644.53	0.00204	3224.5	
70.60	0.04081	1.077	-645.86	0.00204	3230.4	
70.70	0.04091	1.078	-646.82	0.00205	3235.5	
70.80	0.04098	1.081	-648.10	0.00205	3241.7	
70.90	0.04098	1.083	-649.43	0.00205	3247.6	
71.00	0.04109	1.085	-650.98	0.00205	3254.5	
71.10	0.04128	1.087	-652.20	0.00206	3260.4	
71.20	0.04130	1.089	-653.24	0.00206	3265.7	
71.30	0.04136	1.090	-654.47	0.00207	3271.3	
71.40	0.04151	1.092	-655.78	0.00208	3277.4	
71.50	0.04160	1.095	-657.08	0.00208	3284.3	
71.60	0.04161	1.097	-658.28	0.00208	3290.2	
71.70	0.04164	1.099	-659.64	0.00208	3295.7	
71.80	0.04178	1.100	-661.03	0.00209	3301.2	
71.90	0.04188	1.102	-662.25	0.00209	3307.4	
72.00	0.04191	1.105	-663.56	0.00210	3313.9	
72.10	0.04195	1.107	-664.73	0.00210	3319.8	
72.20	0.04204	1.108	-665.91	0.00210	3325.3	
72.30	0.04221	1.111	-667.11	0.00211	3331.5	
72.40	0.04223	1.113	-668.57	0.00211	3338.1	
72.50	0.04228	1.115	-670.06	0.00211	3344.9	
72.60	0.04241	1.117	-671.26	0.00212	3351.0	
72.70	0.04252	1.119	-672.36	0.00213	3356.1	
72.80	0.04253	1.121	-673.72	0.00213	3361.7	
72.90	0.04257	1.123	-675.05	0.00213	3368.4	
73.00	0.04272	1.125	-676.62	0.00214	3375.3	
73.10	0.04284	1.127	-677.90	0.00214	3381.6	
73.20	0.04285	1.129	-679.26	0.00214	3387.4	
73.30	0.04290	1.131	-680.49	0.00215	3393.7	
73.40	0.04309	1.133	-681.77	0.00215	3399.7	
73.50	0.04316	1.136	-683.34	0.00216	3406.8	
73.60	0.04319	1.138	-684.57	0.00216	3412.8	
73.70	0.04324	1.139	-685.82	0.00216	3418.3	
73.80	0.04340	1.141	-686.97	0.00217	3424.0	
73.90	0.04348	1.144	-688.56	0.00217	3430.8	
74.00	0.04348	1.146	-690.00	0.00217	3437.9	
74.10	0.04367	1.148	-691.28	0.00218	3443.6	
74.20	0.04379	1.150	-692.46	0.00219	3448.9	
74.30	0.04381	1.152	-693.79	0.00219	3454.8	
74.40	0.04384	1.154	-695.20	0.00219	3461.0	
74.50	0.04402	1.156	-696.70	0.00220	3468.1	
74.60	0.04411	1.158	-698.19	0.00221	3473.9	
74.70	0.04411	1.160	-699.23	0.00221	3479.2	
74.80	0.04411	1.162	-700.59	0.00221	3484.7	
74.90	0.04429	1.164	-702.21	0.00221	3491.2	
75.00	0.04439	1.166	-703.71	0.00222	3498.2	
75.10	0.04443	1.168	-704.99	0.00222	3504.8	
75.20	0.04449	1.170	-706.16	0.00222	3510.2	
75.30	0.04463	1.172	-707.57	0.00223	3515.8	
75.40	0.04472	1.174	-708.98	0.00224	3522.1	
75.50	0.04477	1.176	-710.58	0.00224	3529.1	
75.60	0.04496	1.179	-712.13	0.00225	3535.5	
75.70	0.04502	1.180	-713.36	0.00225	3541.1	
75.80	0.04505	1.182	-714.82	0.00225	3546.5	
75.90	0.04513	1.184	-716.24	0.00226	3552.5	
76.00	0.04531	1.187	-717.75	0.00227	3559.6	
76.10	0.04536	1.189	-719.03	0.00227	3566.0	
76.20	0.04545	1.191	-720.66	0.00227	3571.7	
76.30	0.04562	1.192	-722.07	0.00228	3577.4	
76.40	0.04565	1.194	-723.46	0.00228	3583.1	
76.50	0.04571	1.197	-725.22	0.00229	3590.3	
76.60	0.04586	1.199	-726.61	0.00229	3596.9	
76.70	0.04596	1.201	-728.02	0.00230	3602.4	
76.80	0.04596	1.203	-729.51	0.00230	3608.2	
76.90	0.04611	1.205	-730.95	0.00231	3613.8	
77.00	0.04621	1.207	-732.66	0.00231	3620.7	
77.10	0.04632	1.209	-734.15	0.00232	3627.5	
77.20	0.04650	1.211	-735.54	0.00233	3633.3	
77.30	0.04659	1.213	-737.00	0.00233	3638.7	
77.40	0.04658	1.215	-738.68	0.00233	3644.5	
77.50	0.04664	1.217	-740.25	0.00233	3651.3	
77.60	0.04687	1.219	-741.85	0.00234	3658.1	
77.70	0.04696	1.221	-743.43	0.00235	3663.5	
77.80	0.04701	1.223	-745.00	0.00235	3669.1	
77.90	0.04717	1.225	-746.36	0.00236	3674.8	
78.00	0.04720	1.227	-748.28	0.00236	3681.7	
78.10	0.04731	1.230	-749.74	0.00237	3688.5	
78.20	0.04747	1.231	-751.29	0.00237	3694.0	
78.30	0.04754	1.233	-753.08	0.00238	3700.1	
78.40	0.04763	1.235	-754.60	0.00238	3706.0	
78.50	0.04780	1.237	-756.38	0.00239	3712.5	
78.60	0.04784	1.240	-758.03	0.00239	3718.7	
78.70	0.04801	1.241	-759.53	0.00240	3724.2	
78.80	0.04814	1.243	-761.13	0.00241	3729.9	
78.90	0.04814	1.245	-762.75	0.00241	3735.4	
79.00	0.04832	1.247	-764.51	0.00242	3741.7	
79.10	0.04846	1.249	-766.51	0.00242	3748.0	
79.20	0.04845	1.251	-768.03	0.00242	3753.9	
79.30	0.04860	1.253	-769.76	0.00243	3759.5	
79.40	0.04876	1.255	-771.44	0.00244	3765.1	
79.50	0.04882	1.257	-773.42	0.00244	3771.0	
79.60	0.04896	1.259	-775.23	0.00245	3777.6	
79.70	0.04907	1.261	-776.88	0.00245	3783.0	
79.80	0.04913	1.263	-778.64	0.00246	3788.1	
79.90	0.04934	1.265	-780.24	0.00247	3793.7	
80.00	0.04939	1.267	-782.13	0.00247	3799.7	
80.10	0.04955	1.269	-783.95	0.00248	3806.4	
80.20	0.04970	1.271	-785.78	0.00248	3812.3	
80.30	0.04978	1.273	-787.60	0.00249	3817.6	
80.40	0.04996	1.274	-789.49	0.00250	3822.9	
80.50	0.05001	1.276	-791.36	0.00250	3829.0	
80.60	0.05006	1.279	-793.49	0.00250	3835.7	
80.70	0.05028	1.280	-795.38	0.00251	3841.1	
80.80	0.05035	1.282	-797.06	0.00252	3846.2	
80.90	0.05053	1.284	-799.01	0.00253	3851.8	
81.00	0.05063	1.286	-801.01	0.00253	3857.4	
81.10	0.05084	1.288	-803.19	0.00254	3864.1	
81.20	0.05094	1.290	-804.93	0.00255	3869.7	
81.30	0.05102	1.292	-806.79	0.00255	3874.8	
81.40	0.05122	1.293	-808.84	0.00256	3880.4	
81.50	0.05127	1.295	-811.06	0.00256	3886.1	
81.60	0.05139	1.298	-813.22	0.00257	3892.8	
81.70	0.05156	1.299	-815.29	0.00258	3898.0	
81.80	0.05161	1.301	-817.35	0.00258	3903.1	
81.90	0.05185	1.303	-819.51	0.00259	3908.7	
82.00	0.05193	1.305	-821.77	0.00260	3914.2	
82.10	0.05209	1.307	-823.96	0.00260	3920.8	
82.20	0.05223	1.309	-826.06	0.00261	3926.1	
82.30	0.05248	1.310	-828.30	0.00262	3931.2	
82.40	0.05252	1.312	-830.49	0.00263	3936.8	
82.50	0.05261	1.314	-832.78	0.00263	3942.3	
82.60	0.05281	1.316	-835.26	0.00264	3948.5	
82.70	0.05298	1.318	-837.45	0.00265	3953.9	
82.80	0.05312	1.320	-839.50	0.00266	3958.9	
82.90	0.05326	1.321	-841.90	0.00266	3963.9	
83.00	0.05343	1.323	-844.38	0.00267	3969.5	
83.10	0.05364	1.325	-847.02	0.00268	3975.7	
83.20	0.05377	1.327	-849.58	0.00269	3981.0	
83.30	0.05399	1.329	-851.82	0.00270	3985.8	
83.40	0.05408	1.330	-854.13	0.00270	3990.7	
83.50	0.05429	1.332	-856.80	0.00271	3996.3	
83.60	0.05451	1.334	-859.60	0.00273	4002.4	
83.70	0.05468	1.336	-862.19	0.00273	4008.1	
83.80	0.05484	1.338	-864.61	0.00274	4012.7	
83.90	0.05500	1.339	-867.17	0.00275	4017.6	
84.00	0.05521	1.341	-869.81	0.00276	4023.1	
84.10	0.05539	1.343	-872.69	0.00277	4029.3	
84.20	0.05561	1.345	-875.38	0.00278	4034.1	
84.30	0.05570	1.346	-877.94	0.00279	4038.1	
84.40	0.05591	1.348	-880.71	0.00280	4042.9	
84.50	0.05609	1.349	-883.54	0.00280	4048.1	
84.60	0.05628	1.351	-886.42	0.00281	4053.9	
84.70	0.05652	1.353	-889.30	0.00283	4059.0	
84.80	0.05669	1.354	-892.04	0.00283	4063.2	
84.90	0.05689	1.356	-894.95	0.00284	4067.3	
85.00	0.05707	1.358	-897.75	0.00285	4072.6	
85.10	0.05726	1.360	-901.08	0.00286	4078.6	
85.20	0.05749	1.361	-904.04	0.00287	4083.4	
85.30	0.05769	1.363	-906.92	0.00288	4087.7	
85.40	0.05785	1.364	-909.96	0.00289	4092.1	
85.50	0.05808	1.366	-913.26	0.00290	4096.7	
85.60	0.05828	1.367	-916.49	0.00291	4102.1	
85.70	0.05850	1.369	-919.55	0.00292	4106.5	
85.80	0.05874	1.370	-922.56	0.00294	4110.6	
85.90	0.05897	1.372	-925.82	0.00295	4114.8	
86.00	0.05920	1.373	-928.99	0.00296	4119.7	
86.10	0.05940	1.375	-932.64	0.00297	4124.9	
86.20	0.05965	1.376	-935.92	0.00298	4129.5	
86.30	0.05987	1.378	-939.28	0.00299	4133.5	
86.40	0.06006	1.379	-942.45	0.00300	4137.3	
86.50	0.06027	1.381	-945.97	0.00301	4141.6	
86.60	0.06058	1.382	-949.65	0.00303	4147.1	
86.70	0.06080	1.384	-953.14	0.00304	4151.2	
86.80	0.06098	1.385	-956.58	0.00305	4154.8	
86.90	0.06125	1.386	-960.13	0.00306	4158.7	
87.00	0.06153	1.388	-963.75	0.00308	4162.6	
87.10	0.06178	1.389	-967.54	0.00309	4167.8	
87.20	0.06199	1.391	-971.29	0.00310	4171.7	
87.30	0.06223	1.392	-974.79	0.00311	4175.4	
87.40	0.06247	1.393	-978.39	0.00312	4179.2	
87.50	0.06269	1.394	-982.14	0.00313	4182.8	
87.60	0.06295	1.396	-986.01	0.00315	4187.6	
87.70	0.06323	1.397	-989.69	0.00316	4191.4	
87.80	0.06345	1.398	-993.53	0.00317	4194.8	
87.90	0.06374	1.400	-997.26	0.00319	4198.6	
88.00	0.06405	1.401	-1001.2	0.00320	4202.2	
88.10	0.06435	1.402	-1005.2	0.00322	4206.7	
88.20	0.06456	1.404	-1009.2	0.00323	4211.0	
88.30	0.06486	1.405	-1013.4	0.00324	4214.4	
88.40	0.06512	1.406	-1017.5	0.00326	4217.8	
88.50	0.06542	1.407	-1021.3	0.00327	4221.3	
88.60	0.06574	1.409	-1025.8	0.00329	4225.8	
88.70	0.06599	1.410	-1030.1	0.00330	4230.0	
88.80	0.06624	1.411	-1034.2	0.00331	4233.3	
88.90	0.06653	1.412	-1038.5	0.00333	4236.8	
89.00	0.06689	1.413	-1042.9	0.00334	4239.9	
89.10	0.06719	1.415	-1047.4	0.00336	4244.1	
89.20	0.06749	1.416	-1052.0	0.00337	4248.6	
89.30	0.06777	1.417	-1056.3	0.00339	4251.4	
89.40	0.06807	1.418	-1060.8	0.00340	4254.2	
89.50	0.06838	1.419	-1065.2	0.00342	4257.2	
89.60	0.06868	1.420	-1069.8	0.00343	4260.6	
89.70	0.06899	1.422	-1074.4	0.00345	4264.8	
89.80	0.06928	1.423	-1079.2	0.00346	4267.7	
89.90	0.06959	1.423	-1083.6	0.00348	4270.4	
90.00	0.06993	1.425	-1088.2	0.00350	4273.6	
90.10	0.07026	1.426	-1092.9	0.00351	4277.5	
90.20	0.07056	1.427	-1097.8	0.00353	4281.1	
90.30	0.07084	1.428	-1102.4	0.00354	4284.0	
90.40	0.07117	1.429	-1107.2	0.00356	4286.6	
90.50	0.07150	1.430	-1111.9	0.00358	4289.6	
90.60	0.07188	1.431	-1116.7	0.00359	4292.9	
90.70	0.07224	1.432	-1121.9	0.00361	4296.5	
90.80	0.07255	1.433	-1126.6	0.00363	4299.2	
90.90	0.07289	1.434	-1131.5	0.00364	4302.2	
91.00	0.07322	1.435	-1136.4	0.00366	4304.5	
91.10	0.07355	1.436	-1141.5	0.00368	4307.4	
91.20	0.07387	1.437	-1146.6	0.00369	4311.4	
91.30	0.07425	1.438	-1151.8	0.00371	4314.0	
91.40	0.07456	1.439	-1156.8	0.00373	4316.4	
91.50	0.07486	1.440	-1161.8	0.00374	4319.4	
91.60	0.07519	1.441	-1167.0	0.00376	4322.6	
91.70	0.07556	1.442	-1172.4	0.00378	4326.0	
91.80	0.07589	1.443	-1177.7	0.00379	4328.7	
91.90	0.07624	1.444	-1182.9	0.00381	4330.9	
92.00	0.07659	1.445	-1188.3	0.00383	4333.8	
92.10	0.07695	1.446	-1193.6	0.00385	4336.8	
92.20	0.07739	1.447	-1199.2	0.00387	4340.1	
92.30	0.07772	1.447	-1204.4	0.00389	4342.4	
92.40	0.07808	1.448	-1209.8	0.00390	4344.6	
92.50	0.07838	1.449	-1215.1	0.00392	4346.8	
92.60	0.07875	1.450	-1220.8	0.00394	4349.5	
92.70	0.07916	1.451	-1226.2	0.00396	4352.9	
92.80	0.07951	1.452	-1231.6	0.00398	4355.1	
92.90	0.07987	1.452	-1237.0	0.00399	4357.4	
93.00	0.08016	1.453	-1242.5	0.00401	4359.6	
93.10	0.08055	1.454	-1248.2	0.00403	4362.1	
93.20	0.08093	1.455	-1254.1	0.00405	4365.4	
93.30	0.08131	1.456	-1259.4	0.00407	4367.7	
93.40	0.08174	1.457	-1264.8	0.00409	4370.0	
93.50	0.08209	1.457	-1270.7	0.00410	4372.3	
93.60	0.08242	1.458	-1276.4	0.00412	4374.9	
93.70	0.08282	1.459	-1282.3	0.00414	4378.3	
93.80	0.08315	1.460	-1288.0	0.00416	4380.3	
93.90	0.08357	1.461	-1293.8	0.00418	4382.3	
94.00	0.08397	1.461	-1299.5	0.00420	4384.4	
94.10	0.08441	1.462	-1305.4	0.00422	4387.1	
94.20	0.08479	1.463	-1311.6	0.00424	4390.2	
94.30	0.08514	1.464	-1317.6	0.00426	4392.1	
94.40	0.08554	1.465	-1323.4	0.00428	4393.8	
94.50	0.08593	1.465	-1329.4	0.00430	4395.9	
94.60	0.08636	1.466	-1335.3	0.00432	4398.4	
94.70	0.08673	1.467	-1341.6	0.00434	4400.9	
94.80	0.08708	1.468	-1347.5	0.00435	4403.1	
94.90	0.08748	1.468	-1353.4	0.00437	4404.4	
95.00	0.08786	1.469	-1359.3	0.00439	4406.1	
95.10	0.08828	1.470	-1365.3	0.00441	4408.9	
95.20	0.08868	1.471	-1371.7	0.00443	4412.3	
95.30	0.08910	1.471	-1378.0	0.00445	4414.0	
95.40	0.08954	1.472	-1384.0	0.00448	4415.7	
95.50	0.08988	1.472	-1389.8	0.00449	4417.5	
95.60	0.09030	1.473	-1396.0	0.00451	4420.0	
95.70	0.09070	1.474	-1402.5	0.00453	4423.0	
95.80	0.09111	1.475	-1408.7	0.00456	4425.1	
95.90	0.09149	1.475	-1415.0	0.00457	4426.3	
96.00	0.09189	1.476	-1421.0	0.00459	4428.0	
96.10	0.09232	1.477	-1427.1	0.00462	4430.1	
96.20	0.09272	1.478	-1433.6	0.00464	4433.3	
96.30	0.09312	1.478	-1439.9	0.00466	4435.2	
96.40	0.09356	1.479	-1446.1	0.00468	4436.6	
96.50	0.09391	1.479	-1452.1	0.00470	4438.0	
96.60	0.09433	1.480	-1458.4	0.00472	4440.3	
96.70	0.09479	1.481	-1465.0	0.00474	4443.4	
96.80	0.09518	1.482	-1471.3	0.00476	4445.1	
96.90	0.09554	1.482	-1477.6	0.00478	4446.4	
97.00	0.09595	1.483	-1483.5	0.00480	4447.8	
97.10	0.09636	1.483	-1489.8	0.00482	4450.1	
97.20	0.09669	1.484	-1496.5	0.00483	4453.1	
97.30	0.09716	1.485	-1503.0	0.00486	4455.0	
97.40	0.09756	1.485	-1509.4	0.00488	4455.9	
97.50	0.09797	1.486	-1515.6	0.00490	4457.5	
97.60	0.09839	1.487	-1522.0	0.00492	4459.8	
97.70	0.09880	1.488	-1528.7	0.00494	4462.9	
97.80	0.09917	1.488	-1535.5	0.00496	4464.3	
97.90	0.09958	1.489	-1542.0	0.00498	4465.6	
98.00	0.1000	1.489	-1548.5	0.00500	4466.9	
98.10	0.1004	1.490	-1554.9	0.00502	4468.9	
98.20	0.1009	1.490	-1561.7	0.00504	4471.4	
98.30	0.1012	1.491	-1568.1	0.00506	4472.7	
98.40	0.1017	1.491	-1574.5	0.00508	4473.9	
98.50	0.1021	1.492	-1580.9	0.00510	4475.3	
98.60	0.1025	1.492	-1587.6	0.00513	4476.8	
98.70	0.1029	1.493	-1594.5	0.00515	4479.8	
98.80	0.1034	1.494	-1601.3	0.00517	4482.2	
98.90	0.1038	1.494	-1608.0	0.00519	4483.4	
99.00	0.1042	1.495	-1614.7	0.00521	4484.9	
99.10	0.1046	1.496	-1621.3	0.00523	4486.6	
99.20	0.1051	1.496	-1628.6	0.00526	4489.2	
99.30	0.1056	1.497	-1635.6	0.00528	4491.2	
99.40	0.1060	1.497	-1642.4	0.00530	4492.3	
99.50	0.1064	1.498	-1649.3	0.00532	4493.5	
99.60	0.1068	1.498	-1655.9	0.00534	4494.9	
99.70	0.1073	1.499	-1663.1	0.00537	4496.9	
99.80	0.1077	1.500	-1670.0	0.00539	4498.7	
99.90	0.1081	1.500	-1676.7	0.00541	4499.7	
100.00	0.1086	1.500	-1683.7	0.00543	4501.0	
100.10	0.1090	1.501	-1690.4	0.00545	4502.0	
100.20	0.1095	1.501	-1697.3	0.00547	4504.3	
100.30	0.1099	1.502	-1704.2	0.00549	4506.2	
100.40	0.1103	1.503	-1711.1	0.00551	4507.9	
100.50	0.1107	1.503	-1717.7	0.00554	4509.3	
100.60	0.1111	1.503	-1724.3	0.00556	4510.4	
100.70	0.1115	1.504	-1731.6	0.00558	4512.8	
100.80	0.1119	1.505	-1738.4	0.00560	4514.7	
100.90	0.1124	1.505	-1745.1	0.00562	4515.7	
101.00	0.1128	1.506	-1752.0	0.00564	4517.2	
101.10	0.1133	1.506	-1758.7	0.00566	4518.7	
101.20	0.1137	1.507	-1765.6	0.00569	4520.3	
101.30	0.1141	1.507	-1772.4	0.00570	4522.2	
101.40	0.1146	1.508	-1779.3	0.00573	4523.8	
101.50	0.1151	1.508	-1786.3	0.00575	4525.0	
101.60	0.1155	1.509	-1793.1	0.00577	4526.3	
101.70	0.1159	1.509	-1800.1	0.00579	4528.0	
101.80	0.1163	1.510	-1807.3	0.00581	4530.2	
101.90	0.1167	1.510	-1814.3	0.00584	4531.4	
102.00	0.1172	1.511	-1821.1	0.00586	4532.6	
102.10	0.1176	1.512	-1828.2	0.00588	4534.5	
102.20	0.1180	1.512	-1835.4	0.00590	4535.9	
102.30	0.1185	1.513	-1842.7	0.00592	4538.3	
102.40	0.1190	1.513	-1849.7	0.00595	4539.7	
102.50	0.1193	1.514	-1857.1	0.00597	4540.6	
102.60	0.1198	1.514	-1864.1	0.00599	4542.0	
102.70	0.1203	1.515	-1871.3	0.00601	4543.5	
102.80	0.1208	1.515	-1878.9	0.00604	4545.8	
102.90	0.1212	1.516	-1886.2	0.00606	4547.0	
103.00	0.1216	1.516	-1893.2	0.00608	4547.7	
103.10	0.1220	1.516	-1900.4	0.00610	4549.2	
103.20	0.1225	1.517	-1907.9	0.00613	4550.6	
103.30	0.1230	1.517	-1915.3	0.00615	4552.4	
103.40	0.1234	1.518	-1922.7	0.00617	4553.4	
103.50	0.1239	1.518	-1930.0	0.00619	4553.9	
103.60	0.1243	1.518	-1937.0	0.00622	4554.9	
103.70	0.1247	1.519	-1944.4	0.00624	4556.6	
103.80	0.1252	1.520	-1951.7	0.00626	4558.5	
103.90	0.1257	1.520	-1958.8	0.00628	4559.5	
104.00	0.1261	1.520	-1965.8	0.00630	4560.2	
104.10	0.1265	1.521	-1973.1	0.00632	4561.7	
104.20	0.1269	1.521	-1980.4	0.00635	4563.5	
104.30	0.1274	1.522	-1987.7	0.00637	4565.7	
104.40	0.1278	1.522	-1994.8	0.00639	4567.2	
104.50	0.1283	1.523	-2002.0	0.00641	4568.0	
104.60	0.1287	1.523	-2009.1	0.00644	4569.1	
104.70	0.1291	1.524	-2016.2	0.00646	4570.9	
104.80	0.1296	1.524	-2023.7	0.00648	4573.1	
104.90	0.1300	1.525	-2030.9	0.00650	4574.4	
105.00	0.1305	1.525	-2037.9	0.00653	4574.8	
105.10	0.1310	1.525	-2045.1	0.00655	4575.8	
105.20	0.1314	1.526	-2052.4	0.00657	4577.4	
105.30	0.1319	1.526	-2059.8	0.00659	4579.4	
105.40	0.1323	1.527	-2067.2	0.00661	4580.8	
105.50	0.1327	1.527	-2074.0	0.00663	4581.0	
105.60	0.1331	1.527	-2081.0	0.00666	4582.1	
105.70	0.1336	1.528	-2088.2	0.00668	4583.6	
105.80	0.1340	1.529	-2095.4	0.00670	4585.9	
105.90	0.1345	1.529	-2102.9	0.00673	4587.9	
106.00	0.1349	1.530	-2110.1	0.00674	4588.7	
106.10	0.1354	1.530	-2117.3	0.00677	4589.5	
106.20	0.1358	1.530	-2124.4	0.00679	4591.2	
106.30	0.1362	1.531	-2132.0	0.00681	4593.3	
106.40	0.1367	1.532	-2139.3	0.00683	4594.8	
106.50	0.1371	1.532	-2146.3	0.00686	4595.2	
106.60	0.1376	1.532	-2153.5	0.00688	4595.8	
106.70	0.1380	1.532	-2160.7	0.00690	4596.9	
106.80	0.1384	1.533	-2168.2	0.00692	4598.8	
106.90	0.1390	1.534	-2175.4	0.00695	4600.7	
107.00	0.1393	1.534	-2182.6	0.00697	4601.2	
107.10	0.1398	1.534	-2189.8	0.00699	4602.3	
107.20	0.1402	1.534	-2197.1	0.00701	4603.5	
107.30	0.1406	1.535	-2204.5	0.00703	4605.3	
107.40	0.1411	1.536	-2212.2	0.00705	4607.1	
107.50	0.1415	1.536	-2219.4	0.00708	4607.9	
107.60	0.1419	1.536	-2226.6	0.00710	4608.6	
107.70	0.1424	1.537	-2234.0	0.00712	4610.0	
107.80	0.1428	1.537	-2241.6	0.00714	4611.9	
107.90	0.1433	1.538	-2249.2	0.00717	4613.8	
108.00	0.1438	1.538	-2256.4	0.00719	4614.3	
108.10	0.1443	1.538	-2263.9	0.00722	4614.9	
108.20	0.1447	1.539	-2271.2	0.00723	4615.9	
108.30	0.1452	1.539	-2278.6	0.00726	4617.8	
108.40	0.1456	1.540	-2286.3	0.00728	4619.4	
108.50	0.1460	1.540	-2293.5	0.00730	4619.8	
108.60	0.1465	1.540	-2300.7	0.00733	4620.3	
108.70	0.1469	1.541	-2307.9	0.00735	4621.5	
108.80	0.1474	1.541	-2315.5	0.00737	4623.5	
108.90	0.1479	1.542	-2323.0	0.00739	4625.4	
109.00	0.1483	1.542	-2330.5	0.00741	4626.3	
109.10	0.1487	1.542	-2337.7	0.00744	4626.9	
109.20	0.1491	1.543	-2344.9	0.00746	4627.8	
109.30	0.1496	1.543	-2352.6	0.00748	4629.5	
109.40	0.1501	1.544	-2360.1	0.00750	4631.4	
109.50	0.1505	1.544	-2367.6	0.00753	4632.0	
109.60	0.1509	1.544	-2374.8	0.00755	4632.9	
109.70	0.1514	1.545	-2382.3	0.00757	4633.8	
109.80	0.1518	1.545	-2389.7	0.00759	4635.8	
109.90	0.1523	1.546	-2397.3	0.00761	4637.5	
110.00	0.1527	1.546	-2404.8	0.00764	4638.2	
110.10	0.1532	1.546	-2412.3	0.00766	4639.0	
110.20	0.1536	1.547	-2419.5	0.00768	4640.4	
110.30	0.1541	1.547	-2427.1	0.00771	4641.9	
110.40	0.1545	1.548	-2434.8	0.00773	4643.7	
110.50	0.1550	1.548	-2442.2	0.00775	4644.8	
110.60	0.1554	1.548	-2449.7	0.00777	4645.2	
110.70	0.1559	1.549	-2457.1	0.00780	4646.2	
110.80	0.1563	1.549	-2464.4	0.00782	4647.3	
110.90	0.1568	1.550	-2472.1	0.00784	4649.5	
111.00	0.1572	1.550	-2479.4	0.00786	4650.2	
111.10	0.1577	1.550	-2486.8	0.00788	4650.4	
111.20	0.1582	1.550	-2493.9	0.00791	4651.3	
111.30	0.1585	1.551	-2501.1	0.00792	4652.4	
111.40	0.1590	1.551	-2508.7	0.00795	4654.5	
111.50	0.1594	1.552	-2516.2	0.00797	4655.9	
111.60	0.1599	1.552	-2523.5	0.00799	4656.6	
111.70	0.1603	1.553	-2530.9	0.00801	4658.1	
111.80	0.1607	1.553	-2538.3	0.00804	4659.0	
111.90	0.1611	1.554	-2545.9	0.00806	4660.7	
112.00	0.1616	1.554	-2553.3	0.00808	4662.4	
112.10	0.1621	1.554	-2560.8	0.00810	4662.8	
112.20	0.1625	1.555	-2568.4	0.00813	4664.0	
112.30	0.1630	1.555	-2575.8	0.00815	4665.3	
112.40	0.1634	1.556	-2583.7	0.00817	4666.7	
112.50	0.1639	1.556	-2591.4	0.00820	4668.4	
112.60	0.1643	1.556	-2599.0	0.00822	4669.1	
112.70	0.1648	1.557	-2606.7	0.00824	4670.1	
112.80	0.1653	1.557	-2614.5	0.00826	4671.4	
112.90	0.1658	1.558	-2622.4	0.00829	4672.9	
113.00	0.1662	1.558	-2630.4	0.00831	4674.2	
113.10	0.1667	1.558	-2638.2	0.00833	4674.7	
113.20	0.1671	1.558	-2645.8	0.00835	4675.3	
113.30	0.1675	1.559	-2653.6	0.00838	4676.2	
113.40	0.1680	1.559	-2661.5	0.00840	4677.5	
113.50	0.1685	1.560	-2669.7	0.00842	4679.2	
113.60	0.1690	1.560	-2677.6	0.00845	4680.3	
113.70	0.1694	1.560	-2685.4	0.00847	4680.9	
113.80	0.1699	1.560	-2693.3	0.00849	4681.3	
113.90	0.1703	1.561	-2701.1	0.00852	4682.8	
114.00	0.1708	1.561	-2709.1	0.00854	4684.3	
114.10	0.1714	1.562	-2716.9	0.00857	4684.9	
114.20	0.1718	1.562	-2724.4	0.00859	4685.5	
114.30	0.1723	1.562	-2732.2	0.00861	4686.5	
114.40	0.1728	1.563	-2740.3	0.00864	4687.5	
114.50	0.1733	1.563	-2748.5	0.00866	4689.5	
114.60	0.1737	1.563	-2756.0	0.00869	4689.9	
114.70	0.1742	1.564	-2763.7	0.00871	4690.5	
114.80	0.1746	1.564	-2771.1	0.00873	4691.5	
114.90	0.1751	1.564	-2778.9	0.00875	4692.8	
115.00	0.1755	1.565	-2786.6	0.00878	4694.4	
115.10	0.1760	1.565	-2794.4	0.00880	4695.2	
115.20	0.1764	1.565	-2802.1	0.00882	4695.9	
115.30	0.1769	1.565	-2809.3	0.00885	4696.4	
115.40	0.1774	1.566	-2817.0	0.00887	4698.2	
115.50	0.1778	1.567	-2824.6	0.00889	4700.3	
115.60	0.1782	1.567	-2832.2	0.00891	4701.1	
115.70	0.1787	1.567	-2839.6	0.00893	4701.3	
115.80	0.1792	1.567	-2847.1	0.00896	4702.5	
115.90	0.1796	1.568	-2854.4	0.00898	4703.9	
116.00	0.1801	1.569	-2862.2	0.00901	4705.8	
116.10	0.1806	1.569	-2869.5	0.00903	4706.0	
116.20	0.1811	1.569	-2876.8	0.00905	4706.6	
116.30	0.1815	1.569	-2883.9	0.00907	4707.3	
116.40	0.1819	1.570	-2891.2	0.00909	4708.7	
116.50	0.1824	1.570	-2898.6	0.00912	4710.7	
116.60	0.1828	1.570	-2905.9	0.00914	4711.3	
116.70	0.1832	1.571	-2913.0	0.00916	4711.6	
116.80	0.1836	1.571	-2919.9	0.00918	4712.2	
116.90	0.1840	1.571	-2926.8	0.00920	4713.0	
117.00	0.1845	1.572	-2934.0	0.00922	4715.1	
117.10	0.1849	1.572	-2941.1	0.00925	4716.3	
117.20	0.1854	1.572	-2947.8	0.00927	4716.4	
117.30	0.1858	1.572	-2954.6	0.00929	4717.1	
117.40	0.1862	1.573	-2961.5	0.00931	4718.5	
117.50	0.1867	1.574	-2968.6	0.00933	4720.8	
117.60	0.1871	1.574	-2975.5	0.00935	4722.1	
117.70	0.1875	1.574	-2982.2	0.00938	4722.6	
117.80	0.1879	1.574	-2988.8	0.00939	4723.4	
117.90	0.1883	1.575	-2995.6	0.00942	4724.0	
118.00	0.1888	1.575	-3002.3	0.00944	4725.8	
118.10	0.1892	1.576	-3009.2	0.00946	4726.9	
118.20	0.1896	1.576	-3016.0	0.00948	4726.9	
118.30	0.1900	1.576	-3022.4	0.00950	4727.7	
118.40	0.1904	1.576	-3028.9	0.00952	4729.1	
118.50	0.1908	1.577	-3035.4	0.00954	4731.1	
118.60	0.1912	1.577	-3042.0	0.00956	4732.2	
118.70	0.1916	1.577	-3048.4	0.00958	4732.1	
118.80	0.1920	1.578	-3054.6	0.00960	4732.7	
118.90	0.1924	1.578	-3061.1	0.00962	4734.0	
119.00	0.1928	1.579	-3067.6	0.00964	4735.9	
119.10	0.1932	1.579	-3073.9	0.00966	4736.9	
119.20	0.1936	1.579	-3079.9	0.00968	4737.1	
119.30	0.1940	1.579	-3086.0	0.00970	4737.9	
119.40	0.1944	1.580	-3092.0	0.00972	4738.8	
119.50	0.1948	1.580	-3098.6	0.00974	4741.0	
119.60	0.1951	1.580	-3104.7	0.00976	4741.5	
119.70	0.1955	1.581	-3110.5	0.00978	4741.6	
119.80	0.1958	1.581	-3116.5	0.00979	4742.5	
119.90	0.1962	1.581	-3122.3	0.00981	4742.8	
120.00	0.1966	1.582	-3128.4	0.00983	4745.0	
120.10	0.1970	1.582	-3134.3	0.00985	4746.1	
120.20	0.1973	1.582	-3140.1	0.00986	4746.4	
120.30	0.1976	1.582	-3145.9	0.00988	4747.0	
120.40	0.1980	1.582	-3151.4	0.00990	4747.4	
120.50	0.1984	1.583	-3157.3	0.00992	4749.7	
120.60	0.1987	1.584	-3163.0	0.00994	4750.9	
120.70	0.1991	1.584	-3168.7	0.00995	4751.2	
120.80	0.1993	1.584	-3174.2	0.00997	4751.9	
120.90	0.1997	1.584	-3180.0	0.00998	4752.6	
121.00	0.2000	1.585	-3185.6	0.01000	4754.5	
121.10	0.2004	1.585	-3191.6	0.01002	4756.0	
121.20	0.2007	1.586	-3197.1	0.01003	4756.7	
121.30	0.2010	1.586	-3202.6	0.01005	4757.3	
121.40	0.2013	1.586	-3208.1	0.01007	4758.2	
121.50	0.2017	1.587	-3213.9	0.01008	4759.7	
121.60	0.2020	1.587	-3220.0	0.01010	4761.3	
121.70	0.2024	1.588	-3225.7	0.01012	4762.5	
121.80	0.2027	1.588	-3231.4	0.01013	4763.0	
121.90	0.2030	1.588	-3237.2	0.01015	4764.0	
122.00	0.2033	1.588	-3243.1	0.01016	4765.2	
122.10	0.2037	1.589	-3249.2	0.01018	4767.0	
122.20	0.2040	1.589	-3255.2	0.01020	4768.1	
122.30	0.2043	1.590	-3261.2	0.01022	4768.9	
122.40	0.2047	1.590	-3267.3	0.01023	4770.2	
122.50	0.2051	1.590	-3273.7	0.01025	4771.3	
122.60	0.2054	1.591	-3280.3	0.01027	4773.2	
122.70	0.2058	1.591	-3286.7	0.01029	4774.3	
122.80	0.2062	1.592	-3293.4	0.01031	4774.8	
122.90	0.2065	1.592	-3300.2	0.01032	4775.8	
123.00	0.2069	1.592	-3307.0	0.01034	4776.8	
123.10	0.2072	1.593	-3314.1	0.01036	4778.7	
123.20	0.2076	1.593	-3321.3	0.01038	4779.7	
123.30	0.2081	1.593	-3328.5	0.01040	4780.0	
123.40	0.2084	1.594	-3335.9	0.01042	4781.1	
123.50	0.2088	1.594	-3343.6	0.01044	4782.0	
123.60	0.2092	1.595	-3351.4	0.01046	4783.6	
123.70	0.2096	1.595	-3359.4	0.01048	4783.9	
123.80	0.2100	1.595	-3367.4	0.01050	4784.2	
123.90	0.2104	1.595	-3375.2	0.01052	4784.7	
124.00	0.2108	1.595	-3383.4	0.01054	4785.1	
124.10	0.2113	1.596	-3392.1	0.01057	4786.7	
124.20	0.2117	1.596	-3400.7	0.01058	4787.4	
124.30	0.2121	1.596	-3409.3	0.01061	4787.4	
124.40	0.2126	1.596	-3418.1	0.01063	4788.0	
124.50	0.2131	1.596	-3427.1	0.01065	4788.9	
124.60	0.2135	1.597	-3436.4	0.01067	4790.1	
124.70	0.2139	1.597	-3445.9	0.01070	4790.6	
124.80	0.2144	1.597	-3455.5	0.01072	4790.7	
124.90	0.2149	1.597	-3465.3	0.01074	4791.3	
125.00	0.2154	1.598	-3475.3	0.01077	4792.5	
125.10	0.2159	1.598	-3486.0	0.01079	4793.9	
125.20	0.2164	1.598	-3496.7	0.01082	4794.3	
125.30	0.2169	1.598	-3507.6	0.01085	4794.5	
125.40	0.2174	1.598	-3518.8	0.01087	4795.2	
125.50	0.2180	1.599	-3530.3	0.01090	4796.0	
125.60	0.2185	1.599	-3542.4	0.01093	4797.7	
125.70	0.2191	1.599	-3554.9	0.01096	4798.2	
125.80	0.2197	1.599	-3567.4	0.01098	4797.8	
125.90	0.2202	1.599	-3580.3	0.01101	4798.1	
126.00	0.2208	1.600	-3593.5	0.01104	4799.0	
126.10	0.2214	1.600	-3607.6	0.01107	4800.5	
126.20	0.2221	1.600	-3621.9	0.01110	4801.5	
126.30	0.2227	1.600	-3636.3	0.01114	4801.2	
126.40	0.2233	1.601	-3651.0	0.01116	4801.8	
126.50	0.2239	1.601	-3665.8	0.01120	4802.5	
126.60	0.2246	1.601	-3681.5	0.01123	4803.8	
126.70	0.2252	1.602	-3697.0	0.01126	4804.6	
126.80	0.2258	1.602	-3712.5	0.01129	4804.8	
126.90	0.2265	1.602	-3727.9	0.01133	4805.1	
127.00	0.2271	1.602	-3743.3	0.01136	4806.0	
127.10	0.2277	1.602	-3758.4	0.01139	4807.3	
127.20	0.2284	1.603	-3773.8	0.01142	4809.0	
127.30	0.2292	1.603	-3788.1	0.01146	4808.8	
127.40	0.2298	1.603	-3802.2	0.01149	4809.3	
127.50	0.2304	1.603	-3815.5	0.01152	4810.4	
127.60	0.2310	1.604	-3828.7	0.01155	4812.1	
127.70	0.2317	1.604	-3841.7	0.01159	4813.5	
127.80	0.2324	1.605	-3853.8	0.01162	4813.7	
127.90	0.2331	1.605	-3865.1	0.01166	4814.3	
128.00	0.2337	1.605	-3876.4	0.01169	4814.6	
128.10	0.2344	1.605	-3887.5	0.01172	4815.7	
128.20	0.2352	1.606	-3898.2	0.01176	4817.8	
128.30	0.2359	1.606	-3908.7	0.01179	4817.6	
128.40	0.2366	1.606	-3918.8	0.01183	4817.4	
128.50	0.2373	1.606	-3928.5	0.01186	4817.5	
128.60	0.2380	1.606	-3938.4	0.01190	4818.5	
128.70	0.2387	1.607	-3949.1	0.01193	4820.1	
128.80	0.2395	1.607	-3959.4	0.01197	4820.2	
128.90	0.2402	1.607	-3970.2	0.01201	4820.1	
129.00	0.2409	1.607	-3981.6	0.01205	4820.3	
129.10	0.2417	1.607	-3994.0	0.01209	4821.3	
129.20	0.2424	1.608	-4007.1	0.01212	4823.3	
129.30	0.2431	1.608	-4021.1	0.01216	4823.7	
129.40	0.2439	1.608	-4035.2	0.01219	4824.2	
129.50	0.2446	1.608	-4049.1	0.01223	4824.8	
129.60	0.2453	1.609	-4062.9	0.01226	4826.5	
129.70	0.2460	1.610	-4076.8	0.01230	4828.8	
129.80	0.2467	1.610	-4090.1	0.01234	4829.8	
129.90	0.2474	1.610	-4102.2	0.01237	4830.2	
130.00	0.2480	1.610	-4113.2	0.01240	4831.1	
130.10	0.2487	1.611	-4123.5	0.01244	4832.3	
130.20	0.2495	1.611	-4133.1	0.01247	4834.3	
130.30	0.2502	1.611	-4141.3	0.01251	4834.5	
130.40	0.2509	1.611	-4148.2	0.01254	4833.7	
130.50	0.2515	1.611	-4154.1	0.01258	4833.0	
130.60	0.2523	1.610	-4158.6	0.01262	4831.0	
130.70	0.2535	1.604	-4157.2	0.01267	4812.6	
130.80	0.2552	1.586	-4152.4	0.01276	4759.2	
130.90	0.2560	1.584	-4154.0	0.01280	4752.7	
131.00	0.2563	1.587	-4157.4	0.01281	4762.2	
131.10	0.2566	1.591	-4161.4	0.01283	4772.6	
131.20	0.2569	1.595	-4165.5	0.01285	4784.7	
131.30	0.2572	1.599	-4169.6	0.01286	4795.6	
131.40	0.2575	1.602	-4173.9	0.01288	4805.9	
131.50	0.2578	1.605	-4178.2	0.01289	4816.1	
131.60	0.2582	1.608	-4182.5	0.01291	4825.4	
131.70	0.2585	1.612	-4187.1	0.01292	4834.6	
131.80	0.2588	1.614	-4191.4	0.01294	4842.3	
131.90	0.2591	1.616	-4195.2	0.01296	4847.7	
132.00	0.2595	1.617	-4197.7	0.01298	4850.5	
132.10	0.2603	1.592	-4181.1	0.01302	4776.3	
132.20	0.2610	1.578	-4176.8	0.01305	4733.7	
132.30	0.2613	1.582	-4180.1	0.01306	4745.9	
132.40	0.2615	1.586	-4183.3	0.01308	4758.4	
132.50	0.2617	1.590	-4186.7	0.01308	4771.1	
132.60	0.2619	1.595	-4190.1	0.01310	4783.5	
132.70	0.2622	1.599	-4193.9	0.01311	4796.7	
132.80	0.2624	1.603	-4197.5	0.01312	4809.4	
132.90	0.2626	1.607	-4201.1	0.01313	4820.1	
133.00	0.2629	1.610	-4204.6	0.01314	4831.3	
133.10	0.2632	1.614	-4208.2	0.01316	4841.2	
133.20	0.2635	1.617	-4212.1	0.01317	4850.9	
133.30	0.2636	1.619	-4215.3	0.01318	4858.4	
133.40	0.2637	1.615	-4210.9	0.01318	4846.3	
133.50	0.2625	1.584	-4194.0	0.01313	4751.8	
133.60	0.2626	1.582	-4195.1	0.01313	4746.7	
133.70	0.2627	1.587	-4198.4	0.01314	4760.3	
133.80	0.2629	1.591	-4201.6	0.01314	4773.7	
133.90	0.2631	1.595	-4204.8	0.01315	4786.5	
134.00	0.2634	1.600	-4207.9	0.01317	4799.4	
134.10	0.2636	1.604	-4211.4	0.01318	4811.9	
134.20	0.2638	1.608	-4215.0	0.01319	4824.2	
134.30	0.2641	1.612	-4218.6	0.01320	4836.7	
134.40	0.2643	1.616	-4221.7	0.01321	4847.1	
134.50	0.2645	1.619	-4224.5	0.01322	4856.2	
134.60	0.2647	1.621	-4226.6	0.01324	4862.7	
134.70	0.2639	1.597	-4209.5	0.01319	4791.4	
134.80	0.2632	1.583	-4204.7	0.01316	4748.6	
134.90	0.2635	1.587	-4207.9	0.01317	4760.8	
135.00	0.2636	1.591	-4210.9	0.01318	4773.6	
135.10	0.2638	1.595	-4213.8	0.01319	4786.2	
135.20	0.2640	1.600	-4217.1	0.01320	4799.6	
135.30	0.2643	1.605	-4220.5	0.01321	4813.6	
135.40	0.2644	1.609	-4223.5	0.01322	4825.9	
135.50	0.2646	1.612	-4226.7	0.01323	4837.5	
135.60	0.2649	1.616	-4230.0	0.01324	4848.9	
135.70	0.2651	1.620	-4233.1	0.01325	4859.7	
135.80	0.2653	1.623	-4236.0	0.01327	4868.8	
135.90	0.2653	1.622	-4233.9	0.01327	4866.0	
136.00	0.2643	1.593	-4216.5	0.01321	4778.0	
136.10	0.2641	1.589	-4216.5	0.01321	4766.3	
136.20	0.2644	1.593	-4219.8	0.01322	4780.2	
136.30	0.2645	1.598	-4223.0	0.01323	4794.2	
136.40	0.2647	1.602	-4226.1	0.01324	4807.1	
136.50	0.2649	1.607	-4229.2	0.01325	4819.6	
136.60	0.2651	1.611	-4232.4	0.01325	4832.0	
136.70	0.2653	1.615	-4235.8	0.01327	4845.0	
136.80	0.2655	1.619	-4239.1	0.01327	4857.9	
136.90	0.2657	1.623	-4241.8	0.01328	4867.7	
137.00	0.2658	1.623	-4241.2	0.01329	4870.1	
137.10	0.2648	1.597	-4224.5	0.01324	4790.5	
137.20	0.2647	1.592	-4224.2	0.01323	4775.9	
137.30	0.2648	1.597	-4227.7	0.01324	4790.6	
137.40	0.2650	1.601	-4230.7	0.01325	4804.1	
137.50	0.2652	1.606	-4233.9	0.01326	4816.7	
137.60	0.2654	1.610	-4237.0	0.01327	4829.5	
137.70	0.2656	1.614	-4240.3	0.01328	4842.7	
137.80	0.2659	1.619	-4243.8	0.01329	4855.9	
137.90	0.2661	1.622	-4246.5	0.01330	4866.8	
138.00	0.2663	1.625	-4248.8	0.01331	4874.8	
138.10	0.2662	1.621	-4245.3	0.01331	4861.7	
138.20	0.2660	1.615	-4243.3	0.01330	4844.0	
138.30	0.2661	1.618	-4246.5	0.01331	4854.3	
138.40	0.2664	1.622	-4249.8	0.01332	4866.0	
138.50	0.2666	1.625	-4252.9	0.01333	4876.3	
138.60	0.2668	1.629	-4256.1	0.01334	4886.0	
138.70	0.2670	1.632	-4259.2	0.01335	4895.0	
138.80	0.2667	1.619	-4250.2	0.01333	4857.4	
138.90	0.2660	1.602	-4243.4	0.01330	4806.0	
139.00	0.2661	1.604	-4245.6	0.01331	4812.8	
139.10	0.2663	1.608	-4248.3	0.01331	4824.9	
139.20	0.2665	1.612	-4251.6	0.01333	4837.4	
139.30	0.2666	1.617	-4254.7	0.01333	4851.2	
139.40	0.2669	1.621	-4257.4	0.01334	4863.1	
139.50	0.2671	1.624	-4259.9	0.01335	4872.9	
139.60	0.2672	1.626	-4260.4	0.01336	4878.6	
139.70	0.2663	1.603	-4244.7	0.01332	4808.3	
139.80	0.2660	1.595	-4243.3	0.01330	4786.2	
139.90	0.2662	1.600	-4246.3	0.01331	4799.9	
140.00	0.2664	1.604	-4248.9	0.01332	4812.4	
140.10	0.2666	1.608	-4251.8	0.01333	4825.0	
140.20	0.2667	1.613	-4254.7	0.01334	4837.8	
140.30	0.2669	1.617	-4257.9	0.01335	4851.9	
140.40	0.2672	1.621	-4260.8	0.01336	4863.9	
140.50	0.2673	1.625	-4263.3	0.01336	4874.3	
140.60	0.2675	1.627	-4264.4	0.01337	4881.5	
140.70	0.2666	1.602	-4245.9	0.01333	4805.0	
140.80	0.2660	1.590	-4242.5	0.01330	4768.6	
140.90	0.2662	1.594	-4245.3	0.01331	4782.5	
141.00	0.2664	1.598	-4248.0	0.01332	4795.0	
141.10	0.2666	1.603	-4251.1	0.01333	4808.0	
141.20	0.2668	1.607	-4253.9	0.01334	4821.1	
141.30	0.2669	1.611	-4257.1	0.01335	4834.3	
141.40	0.2671	1.616	-4260.1	0.01336	4848.1	
141.50	0.2673	1.620	-4262.8	0.01337	4860.8	
141.60	0.2675	1.624	-4265.6	0.01338	4871.7	
141.70	0.2676	1.627	-4267.9	0.01338	4880.8	
141.80	0.2673	1.616	-4256.6	0.01337	4846.9	
141.90	0.2663	1.589	-4244.0	0.01331	4767.1	
142.00	0.2663	1.591	-4246.4	0.01332	4773.9	
142.10	0.2665	1.596	-4249.4	0.01333	4787.2	
142.20	0.2667	1.600	-4252.0	0.01333	4800.5	
142.30	0.2668	1.605	-4255.2	0.01334	4814.1	
142.40	0.2671	1.609	-4258.4	0.01335	4828.5	
142.50	0.2673	1.614	-4261.3	0.01336	4842.2	
142.60	0.2675	1.618	-4264.1	0.01338	4855.0	
142.70	0.2677	1.622	-4267.0	0.01339	4866.9	
142.80	0.2679	1.626	-4269.3	0.01339	4877.0	
142.90	0.2675	1.616	-4258.8	0.01337	4847.6	
143.00	0.2664	1.588	-4244.9	0.01332	4763.4	
143.10	0.2665	1.590	-4247.0	0.01332	4768.7	
143.20	0.2666	1.594	-4249.7	0.01333	4782.8	
143.30	0.2668	1.599	-4252.8	0.01334	4795.9	
143.40	0.2670	1.603	-4256.0	0.01335	4810.3	
143.50	0.2672	1.608	-4258.9	0.01336	4824.3	
143.60	0.2674	1.613	-4261.9	0.01337	4837.6	
143.70	0.2676	1.617	-4264.9	0.01338	4851.2	
143.80	0.2679	1.621	-4267.6	0.01339	4863.7	
143.90	0.2679	1.625	-4270.4	0.01340	4875.7	
144.00	0.2683	1.620	-4262.4	0.01341	4858.9	
144.10	0.2695	1.590	-4246.0	0.01347	4768.7	
144.20	0.2699	1.590	-4247.7	0.01350	4769.6	
144.30	0.2701	1.595	-4250.7	0.01350	4783.6	
144.40	0.2703	1.599	-4253.8	0.01352	4798.2	
144.50	0.2705	1.604	-4257.0	0.01353	4812.1	
144.60	0.2708	1.608	-4259.7	0.01354	4825.1	
144.70	0.2710	1.613	-4262.7	0.01355	4838.4	
144.80	0.2712	1.617	-4265.6	0.01356	4851.6	
144.90	0.2715	1.622	-4268.7	0.01358	4865.3	
145.00	0.2718	1.626	-4271.1	0.01359	4877.6	
145.10	0.2723	1.628	-4271.9	0.01362	4884.4	
145.20	0.2773	1.602	-4253.1	0.01387	4805.8	
145.30	0.2800	1.592	-4250.1	0.01400	4775.5	
145.40	0.2803	1.597	-4253.5	0.01402	4790.3	
145.50	0.2806	1.601	-4256.3	0.01403	4804.1	
145.60	0.2809	1.606	-4259.2	0.01404	4817.5	
145.70	0.2811	1.610	-4262.3	0.01405	4831.1	
145.80	0.2813	1.615	-4265.2	0.01407	4844.9	
145.90	0.2816	1.620	-4268.6	0.01408	4859.5	
146.00	0.2819	1.624	-4271.5	0.01409	4872.6	
146.10	0.2822	1.628	-4274.2	0.01411	4884.1	
146.20	0.2825	1.632	-4276.7	0.01413	4894.9	
146.30	0.2830	1.634	-4277.6	0.01415	4902.8	
146.40	0.2875	1.612	-4260.9	0.01438	4834.6	
146.50	0.2907	1.599	-4256.6	0.01454	4796.2	
146.60	0.2910	1.603	-4259.3	0.01455	4808.7	
146.70	0.2912	1.607	-4262.4	0.01456	4821.7	
146.80	0.2915	1.612	-4265.2	0.01457	4834.8	
146.90	0.2918	1.616	-4268.3	0.01459	4849.3	
147.00	0.2921	1.621	-4271.5	0.01460	4863.6	
147.10	0.2923	1.625	-4274.3	0.01461	4876.3	
147.20	0.2925	1.630	-4277.2	0.01463	4888.8	
147.30	0.2928	1.634	-4280.2	0.01464	4900.9	
147.40	0.2932	1.638	-4283.2	0.01466	4912.6	
147.50	0.2935	1.641	-4285.4	0.01467	4922.4	
147.60	0.2955	1.633	-4278.3	0.01477	4898.5	
147.70	0.3010	1.605	-4267.6	0.01505	4815.7	
147.80	0.3018	1.605	-4268.6	0.01509	4813.7	
147.90	0.3018	1.605	-4268.8	0.01509	4814.2	
148.00	0.3019	1.605	-4268.8	0.01509	4813.6	
148.10	0.3019	1.604	-4268.8	0.01510	4813.1	
148.20	0.3021	1.604	-4268.9	0.01510	4813.1	
148.30	0.3020	1.604	-4268.8	0.01510	4812.5	
148.40	0.3021	1.604	-4269.0	0.01510	4811.7	
148.50	0.3021	1.604	-4269.2	0.01511	4811.5	
148.60	0.3021	1.604	-4269.1	0.01511	4811.2	
148.70	0.3022	1.604	-4269.0	0.01511	4811.0	
148.80	0.3021	1.604	-4269.2	0.01511	4810.7	
148.90	0.3022	1.603	-4269.3	0.01511	4809.8	
149.00	0.3022	1.603	-4269.5	0.01511	4809.7	
149.10	0.3022	1.603	-4269.4	0.01511	4809.4	
149.20	0.3022	1.603	-4269.4	0.01511	4809.5	
149.30	0.3023	1.603	-4269.4	0.01511	4809.5	
149.40	0.3023	1.603	-4269.4	0.01511	4809.1	
149.50	0.3023	1.603	-4269.6	0.01512	4809.1	
149.60	0.3023	1.603	-4269.5	0.01512	4808.5	
149.70	0.3023	1.603	-4269.5	0.01512	4808.2	
149.80	0.3022	1.603	-4269.4	0.01511	4807.8	
149.90	0.3022	1.603	-4269.7	0.01511	4807.7	
150.00	0.3022	1.602	-4269.8	0.01511	4807.4	
150.10	0.3022	1.602	-4269.7	0.01511	4806.9	
150.20	0.3022	1.602	-4269.8	0.01511	4806.5	
150.30	0.3022	1.602	-4269.8	0.01511	4806.5	
150.40	0.3022	1.602	-4269.8	0.01511	4806.2	
150.50	0.3022	1.602	-4269.9	0.01511	4806.1	
150.60	0.3022	1.602	-4269.9	0.01511	4806.1	
150.70	0.3022	1.602	-4270.1	0.01511	4806.0	
150.80	0.3022	1.602	-4270.1	0.01511	4805.6	
150.90	0.3023	1.603	-4271.6	0.01511	4809.2	
151.00	0.3026	1.611	-4277.3	0.01513	4833.8	
151.10	0.3030	1.621	-4283.6	0.01515	4863.3	
151.20	0.3034	1.631	-4290.0	0.01517	4892.8	
151.30	0.3039	1.641	-4296.3	0.01519	4921.9	
151.40	0.3044	1.648	-4300.9	0.01522	4943.6	
151.50	0.3108	1.619	-4280.2	0.01554	4857.6	
151.60	0.3142	1.611	-4277.4	0.01571	4834.0	
151.70	0.3147	1.621	-4282.7	0.01574	4862.4	
151.80	0.3153	1.630	-4287.8	0.01576	4890.2	
151.90	0.3159	1.638	-4293.5	0.01579	4914.7	
152.00	0.3192	1.629	-4519.7	0.01596	4888.3	
152.10	0.3243	1.611	-4758.2	0.01621	4834.4	
152.20	0.3251	1.619	-4786.5	0.01625	4857.7	
152.30	0.3257	1.629	-4812.5	0.01628	4885.7	
152.40	0.3262	1.637	-4851.7	0.01631	4911.1	
152.50	0.3283	1.636	-5316.3	0.01641	4909.1	
152.60	0.3343	1.612	-6087.3	0.01672	4835.1	
152.70	0.3356	1.617	-6148.6	0.01678	4850.3	
152.80	0.3361	1.626	-6164.7	0.01680	4878.3	
152.90	0.3367	1.635	-6180.4	0.01683	4903.9	
153.00	0.3376	1.641	-6198.9	0.01688	4923.2	
153.10	0.3430	1.619	-6255.0	0.01715	4855.9	
153.20	0.3454	1.617	-6279.1	0.01727	4851.4	
153.30	0.3460	1.627	-6291.9	0.01730	4880.3	
153.40	0.3465	1.636	-6303.2	0.01733	4906.6	
153.50	0.3472	1.644	-6313.6	0.01736	4931.7	
153.60	0.3496	1.640	-6312.8	0.01748	4920.6	
153.70	0.3551	1.619	-6306.7	0.01775	4856.9	
153.80	0.3561	1.626	-6313.7	0.01781	4876.6	
153.90	0.3567	1.634	-6320.9	0.01783	4903.4	
154.00	0.3573	1.643	-6328.4	0.01787	4929.3	
154.10	0.3580	1.650	-6333.8	0.01790	4949.2	
154.20	0.3599	1.642	-6324.5	0.01800	4925.0	
154.30	0.3642	1.625	-6317.0	0.01821	4874.1	
154.40	0.3655	1.629	-6321.7	0.01828	4887.3	
154.50	0.3661	1.638	-6328.1	0.01831	4913.1	
154.60	0.3667	1.645	-6334.1	0.01834	4936.5	
154.70	0.3675	1.651	-6338.3	0.01838	4953.9	
154.80	0.3720	1.634	-6326.8	0.01860	4900.8	
154.90	0.3745	1.630	-6327.6	0.01872	4889.4	
155.00	0.3751	1.639	-6333.9	0.01875	4917.3	
155.10	0.3755	1.648	-6339.8	0.01878	4942.9	
155.20	0.3759	1.655	-6345.3	0.01880	4965.4	
155.30	0.3763	1.660	-6349.2	0.01882	4981.0	
155.40	0.3764	1.660	-6351.4	0.01882	4980.6	
155.50	0.3767	1.664	-6355.3	0.01884	4991.8	
155.60	0.3769	1.667	-6358.5	0.01885	5002.1	
155.70	0.3771	1.670	-6360.9	0.01886	5009.0	
155.80	0.3774	1.672	-6363.0	0.01887	5015.3	
155.90	0.3775	1.673	-6364.8	0.01888	5019.7	
156.00	0.3778	1.675	-6367.2	0.01889	5026.1	
156.10	0.3779	1.678	-6369.6	0.01890	5032.9	
156.20	0.3780	1.679	-6371.4	0.01890	5038.0	
156.30	0.3779	1.673	-6369.2	0.01889	5017.9	
156.40	0.3779	1.671	-6371.1	0.01890	5014.3	
156.50	0.3783	1.677	-6375.6	0.01891	5029.7	
156.60	0.3786	1.681	-6379.6	0.01893	5044.0	
156.70	0.3789	1.685	-6383.0	0.01894	5055.5	
156.80	0.3788	1.679	-6375.2	0.01894	5035.5	
156.90	0.3782	1.661	-6366.6	0.01891	4982.8	
157.00	0.3784	1.667	-6371.6	0.01892	5000.3	
157.10	0.3788	1.675	-6377.0	0.01894	5024.6	
157.20	0.3791	1.682	-6381.6	0.01896	5044.8	
157.30	0.3795	1.688	-6386.3	0.01898	5064.1	
157.40	0.3799	1.692	-6385.8	0.01900	5075.2	
157.50	0.3838	1.656	-6360.3	0.01919	4968.0	
157.60	0.3859	1.647	-6359.2	0.01929	4939.8	
157.70	0.3864	1.655	-6364.7	0.01932	4965.1	
157.80	0.3869	1.663	-6370.0	0.01934	4989.9	
157.90	0.3877	1.662	-6366.5	0.01939	4986.8	
158.00	0.3894	1.647	-6359.5	0.01947	4942.3	
158.10	0.3900	1.654	-6364.7	0.01950	4963.0	
158.20	0.3904	1.663	-6370.4	0.01952	4989.7	
158.30	0.3908	1.672	-6376.2	0.01954	5015.6	
158.40	0.3913	1.680	-6381.8	0.01956	5041.0	
158.50	0.3917	1.688	-6387.0	0.01958	5064.3	
158.60	0.3922	1.695	-6392.1	0.01961	5086.0	
158.70	0.3926	1.701	-6396.4	0.01963	5102.6	
158.80	0.3930	1.703	-6396.9	0.01965	5108.2	
158.90	0.3923	1.676	-6381.7	0.01962	5026.6	
159.00	0.3922	1.673	-6383.2	0.01961	5019.5	
159.10	0.3926	1.682	-6388.9	0.01963	5045.2	
159.20	0.3930	1.690	-6393.8	0.01965	5069.0	
159.30	0.3934	1.697	-6398.7	0.01967	5090.1	
159.40	0.3936	1.701	-6400.5	0.01968	5103.0	
159.50	0.3927	1.674	-6382.4	0.01963	5021.1	
159.60	0.3924	1.668	-6382.2	0.01962	5003.1	
159.70	0.3928	1.676	-6388.1	0.01964	5029.3	
159.80	0.3932	1.685	-6393.8	0.01966	5055.6	
159.90	0.3936	1.694	-6399.1	0.01968	5080.8	
160.00	0.3939	1.701	-6403.9	0.01970	5101.9	
160.10	0.3940	1.696	-6394.9	0.01970	5088.3	
160.20	0.3934	1.655	-6371.9	0.01967	4965.5	
160.30	0.3937	1.657	-6375.8	0.01969	4971.8	
160.40	0.3941	1.666	-6381.4	0.01971	4998.6	
160.50	0.3945	1.674	-6386.7	0.01973	5023.2	
160.60	0.3948	1.682	-6391.8	0.01974	5046.7	
160.70	0.3951	1.688	-6395.9	0.01976	5065.2	
160.80	0.3954	1.692	-6398.1	0.01977	5074.9	
160.90	0.3953	1.689	-6396.5	0.01976	5066.2	
161.00	0.3954	1.689	-6397.9	0.01977	5066.8	
161.10	0.3956	1.695	-6402.2	0.01978	5084.8	
161.20	0.3960	1.701	-6406.2	0.01980	5103.4	
161.30	0.3958	1.694	-6396.3	0.01979	5083.1	
161.40	0.3944	1.658	-6378.1	0.01972	4975.2	
161.50	0.3946	1.663	-6382.8	0.01973	4988.6	
161.60	0.3950	1.673	-6389.0	0.01975	5017.8	
161.70	0.3954	1.682	-6394.7	0.01977	5044.5	
161.80	0.3958	1.691	-6400.7	0.01979	5071.9	
161.90	0.3961	1.699	-6406.5	0.01981	5097.9	
162.00	0.3965	1.707	-6411.2	0.01982	5119.7	
162.10	0.3959	1.690	-6394.6	0.01980	5068.7	
162.20	0.3947	1.659	-6381.2	0.01973	4976.4	
162.30	0.3950	1.666	-6386.9	0.01975	4998.9	
162.40	0.3954	1.676	-6393.1	0.01977	5027.5	
162.50	0.3957	1.685	-6398.8	0.01979	5054.3	
162.60	0.3961	1.694	-6404.9	0.01981	5081.6	
162.70	0.3965	1.702	-6410.2	0.01983	5106.4	
162.80	0.3969	1.709	-6415.1	0.01985	5127.0	
162.90	0.3959	1.684	-6395.4	0.01980	5050.8	
163.00	0.3952	1.666	-6389.6	0.01976	4997.1	
163.10	0.3955	1.675	-6395.9	0.01978	5024.8	
163.20	0.3960	1.684	-6401.7	0.01980	5052.4	
163.30	0.3963	1.693	-6407.5	0.01981	5079.2	
163.40	0.3967	1.701	-6412.8	0.01983	5104.1	
163.50	0.3962	1.687	-6399.4	0.01981	5062.3	
163.60	0.3953	1.664	-6389.9	0.01977	4992.8	
163.70	0.3956	1.672	-6395.5	0.01978	5017.4	
163.80	0.3960	1.682	-6401.2	0.01980	5045.0	
163.90	0.3965	1.691	-6407.4	0.01982	5073.8	
164.00	0.3968	1.700	-6413.2	0.01984	5100.5	
164.10	0.3972	1.708	-6418.4	0.01986	5124.3	
164.20	0.3994	1.685	-6399.0	0.01997	5056.3	
164.30	0.4017	1.664	-6390.8	0.02009	4992.1	
164.40	0.4022	1.673	-6396.9	0.02011	5018.9	
164.50	0.4027	1.682	-6402.8	0.02013	5046.9	
164.60	0.4031	1.692	-6408.5	0.02016	5075.1	
164.70	0.4036	1.700	-6414.4	0.02018	5101.5	
164.80	0.4042	1.708	-6419.4	0.02021	5125.0	
164.90	0.4074	1.699	-6408.5	0.02037	5096.8	
165.00	0.4142	1.669	-6394.6	0.02071	5006.9	
165.10	0.4151	1.676	-6399.7	0.02076	5026.6	
165.20	0.4155	1.685	-6405.5	0.02078	5055.0	
165.30	0.4161	1.694	-6411.3	0.02081	5082.6	
165.40	0.4166	1.703	-6417.2	0.02083	5110.0	
165.50	0.4171	1.711	-6422.4	0.02086	5134.2	
165.60	0.4179	1.716	-6423.3	0.02089	5148.9	
165.70	0.4255	1.681	-6401.5	0.02127	5041.5	
165.80	0.4283	1.676	-6402.5	0.02142	5028.8	
165.90	0.4288	1.686	-6408.8	0.02144	5059.3	
166.00	0.4293	1.695	-6414.7	0.02146	5086.4	
166.10	0.4298	1.705	-6420.6	0.02149	5113.7	
166.20	0.4303	1.713	-6426.3	0.02152	5139.4	
166.30	0.4308	1.718	-6427.7	0.02154	5154.6	
166.40	0.4301	1.694	-6414.3	0.02151	5082.3	
166.50	0.4302	1.694	-6416.6	0.02151	5080.8	
166.60	0.4306	1.702	-6422.2	0.02153	5107.4	
166.70	0.4310	1.711	-6427.7	0.02155	5132.5	
166.80	0.4314	1.715	-6429.4	0.02157	5145.2	
166.90	0.4313	1.711	-6426.4	0.02156	5132.9	
167.00	0.4315	1.715	-6429.6	0.02158	5144.7	
167.10	0.4319	1.721	-6433.7	0.02159	5163.9	
167.20	0.4323	1.726	-6435.8	0.02162	5176.9	
167.30	0.4389	1.691	-6416.0	0.02195	5073.8	
167.40	0.4427	1.681	-6415.6	0.02214	5042.3	
167.50	0.4432	1.691	-6422.0	0.02216	5071.7	
167.60	0.4436	1.700	-6427.8	0.02218	5098.9	
167.70	0.4442	1.709	-6433.6	0.02221	5126.2	
167.80	0.4447	1.717	-6439.1	0.02224	5150.6	
167.90	0.4453	1.725	-6444.9	0.02227	5174.2	
168.00	0.4472	1.723	-6435.0	0.02236	5168.0	
168.10	0.4546	1.687	-6402.8	0.02273	5061.3	
168.20	0.4564	1.691	-6406.2	0.02282	5072.0	
168.30	0.4569	1.700	-6412.7	0.02285	5100.1	
168.40	0.4575	1.709	-6420.3	0.02287	5127.3	
168.50	0.4580	1.718	-6431.0	0.02290	5152.5	
168.60	0.4591	1.721	-6566.9	0.02295	5164.3	
168.70	0.4660	1.690	-7199.5	0.02330	5069.6	
168.80	0.4683	1.689	-7305.0	0.02341	5066.6	
168.90	0.4688	1.698	-7319.2	0.02344	5094.9	
169.00	0.4693	1.707	-7339.9	0.02347	5121.9	
169.10	0.4698	1.716	-7367.1	0.02349	5147.1	
169.20	0.4705	1.724	-7430.1	0.02352	5170.9	
169.30	0.4754	1.703	-8299.3	0.02377	5108.6	
169.40	0.4802	1.687	-8719.1	0.02401	5061.4	
169.50	0.4809	1.696	-8732.8	0.02404	5089.1	
169.60	0.4814	1.705	-8750.4	0.02407	5115.6	
169.70	0.4820	1.714	-8764.4	0.02410	5142.2	
169.80	0.4826	1.722	-8776.6	0.02413	5165.9	
169.90	0.4857	1.714	-8781.3	0.02429	5141.1	
170.00	0.4915	1.691	-8792.8	0.02457	5073.6	
170.10	0.4924	1.698	-8805.2	0.02462	5094.3	
170.20	0.4930	1.707	-8816.1	0.02465	5122.4	
170.30	0.4935	1.716	-8826.7	0.02468	5148.9	
170.40	0.4941	1.725	-8836.4	0.02470	5174.1	
170.50	0.4948	1.731	-8843.5	0.02474	5193.5	
170.60	0.5019	1.696	-8825.5	0.02510	5089.2	
170.70	0.5060	1.685	-8825.5	0.02530	5056.2	
170.80	0.5065	1.695	-8832.6	0.02533	5084.8	
170.90	0.5071	1.704	-8839.5	0.02535	5112.0	
171.00	0.5076	1.713	-8846.5	0.02538	5138.3	
171.10	0.5082	1.721	-8853.1	0.02541	5163.1	
171.20	0.5094	1.725	-8855.6	0.02547	5176.4	
171.30	0.5155	1.700	-8841.4	0.02577	5100.3	
171.40	0.5175	1.701	-8844.6	0.02588	5101.8	
171.50	0.5181	1.710	-8851.1	0.02591	5129.6	
171.60	0.5187	1.718	-8857.2	0.02593	5155.4	
171.70	0.5192	1.727	-8863.6	0.02596	5181.4	
171.80	0.5199	1.734	-8868.9	0.02600	5201.6	
171.90	0.5230	1.725	-8860.7	0.02615	5173.9	
172.00	0.5269	1.712	-8855.9	0.02634	5136.7	
172.10	0.5276	1.720	-8861.8	0.02638	5159.6	
172.20	0.5281	1.729	-8868.1	0.02640	5186.7	
172.30	0.5285	1.737	-8873.7	0.02643	5210.3	
172.40	0.5288	1.740	-8876.2	0.02644	5221.4	
172.50	0.5288	1.736	-8876.5	0.02644	5209.3	
172.60	0.5290	1.739	-8878.3	0.02645	5217.9	
172.70	0.5285	1.722	-8864.8	0.02642	5165.1	
172.80	0.5283	1.716	-8864.0	0.02641	5148.0	
172.90	0.5286	1.724	-8869.8	0.02643	5172.8	
173.00	0.5290	1.732	-8875.2	0.02645	5196.9	
173.10	0.5293	1.739	-8879.9	0.02647	5217.6	
173.20	0.5296	1.744	-8883.3	0.02648	5232.7	
173.30	0.5291	1.730	-8872.1	0.02646	5189.8	
173.40	0.5288	1.723	-8870.6	0.02644	5168.2	
173.50	0.5292	1.731	-8876.3	0.02646	5192.9	
173.60	0.5295	1.739	-8881.8	0.02647	5215.9	
173.70	0.5298	1.746	-8886.8	0.02649	5238.0	
173.80	0.5300	1.752	-8890.8	0.02650	5255.8	
173.90	0.5297	1.740	-8878.5	0.02649	5218.6	
174.00	0.5287	1.712	-8866.8	0.02643	5136.5	
174.10	0.5289	1.719	-8872.0	0.02644	5156.0	
174.20	0.5292	1.728	-8878.1	0.02646	5182.8	
174.30	0.5296	1.736	-8883.7	0.02648	5209.3	
174.40	0.5300	1.745	-8889.1	0.02650	5233.6	
174.50	0.5303	1.752	-8894.2	0.02652	5256.4	
174.60	0.5306	1.758	-8898.5	0.02653	5274.6	
174.70	0.5309	1.763	-8902.2	0.02654	5289.6	
174.80	0.5310	1.765	-8902.8	0.02655	5294.3	
174.90	0.5311	1.764	-8903.0	0.02656	5291.6	
175.00	0.5309	1.756	-8895.0	0.02654	5267.0	
175.10	0.5298	1.730	-8882.4	0.02649	5189.5	
175.20	0.5300	1.734	-8886.8	0.02650	5203.5	
175.30	0.5304	1.743	-8892.5	0.02652	5229.5	
175.40	0.5307	1.751	-8897.7	0.02654	5252.9	
175.50	0.5311	1.758	-8902.6	0.02656	5274.7	
175.60	0.5314	1.765	-8906.9	0.02657	5294.0	
175.70	0.5317	1.770	-8910.6	0.02658	5310.7	
175.80	0.5339	1.735	-8880.8	0.02670	5205.8	
175.90	0.5365	1.702	-8867.2	0.02682	5105.7	
176.00	0.5369	1.711	-8873.6	0.02685	5133.1	
176.10	0.5374	1.720	-8879.4	0.02687	5161.0	
176.20	0.5378	1.730	-8885.2	0.02689	5188.6	
176.30	0.5382	1.738	-8890.9	0.02691	5215.5	
176.40	0.5386	1.747	-8896.4	0.02693	5240.0	
176.50	0.5392	1.754	-8900.5	0.02696	5261.9	
176.60	0.5410	1.732	-8882.2	0.02705	5195.2	
176.70	0.5423	1.721	-8879.2	0.02712	5163.9	
176.80	0.5428	1.730	-8885.2	0.02714	5191.4	
176.90	0.5432	1.739	-8890.9	0.02716	5217.9	
177.00	0.5436	1.748	-8896.7	0.02718	5244.5	
177.10	0.5441	1.756	-8901.7	0.02721	5268.6	
177.20	0.5446	1.763	-8906.0	0.02723	5289.3	
177.30	0.5454	1.767	-8906.5	0.02727	5299.7	
177.40	0.5481	1.751	-8896.1	0.02740	5252.6	
177.50	0.5495	1.751	-8897.8	0.02748	5252.1	
177.60	0.5500	1.759	-8902.9	0.02750	5276.6	
177.70	0.5504	1.767	-8908.4	0.02752	5300.6	
177.80	0.5509	1.774	-8913.2	0.02754	5322.9	
177.90	0.5511	1.773	-8907.7	0.02755	5319.9	
178.00	0.5497	1.734	-8885.2	0.02748	5203.4	
178.10	0.5497	1.735	-8888.2	0.02749	5204.6	
178.20	0.5501	1.744	-8894.0	0.02750	5231.8	
178.30	0.5505	1.753	-8900.1	0.02753	5259.2	
178.40	0.5509	1.761	-8905.7	0.02754	5284.3	
178.50	0.5512	1.769	-8911.0	0.02756	5307.6	
178.60	0.5515	1.775	-8913.8	0.02757	5325.8	
178.70	0.5507	1.738	-8887.1	0.02754	5215.3	
178.80	0.5505	1.724	-8883.5	0.02753	5172.4	
178.90	0.5510	1.734	-8889.7	0.02755	5200.8	
179.00	0.5513	1.743	-8895.5	0.02757	5228.4	
179.10	0.5517	1.752	-8901.3	0.02758	5255.5	
179.20	0.5521	1.760	-8906.5	0.02760	5279.9	
179.30	0.5524	1.767	-8909.1	0.02762	5300.3	
179.40	0.5511	1.733	-8885.4	0.02755	5200.2	
179.50	0.5508	1.725	-8884.2	0.02754	5174.6	
179.60	0.5512	1.734	-8890.4	0.02756	5203.3	
179.70	0.5515	1.743	-8896.2	0.02758	5229.7	
179.80	0.5518	1.752	-8902.2	0.02759	5257.5	
179.90	0.5522	1.761	-8907.6	0.02761	5283.3	
180.00	0.5526	1.769	-8913.0	0.02763	5308.4	
180.10	0.5529	1.777	-8917.8	0.02764	5329.8	
180.20	0.5523	1.760	-8901.5	0.02762	5279.6	
180.30	0.5509	1.725	-8885.9	0.02755	5175.0	
180.40	0.5511	1.732	-8891.4	0.02756	5194.8	
180.50	0.5515	1.740	-8897.0	0.02757	5221.4	
180.60	0.5519	1.749	-8902.7	0.02759	5248.1	
180.70	0.5523	1.758	-8908.1	0.02761	5273.9	
180.80	0.5526	1.766	-8913.5	0.02763	5299.4	
180.90	0.5529	1.774	-8918.7	0.02765	5322.5	
181.00	0.5532	1.781	-8923.0	0.02766	5342.5	
181.10	0.5534	1.785	-8923.5	0.02767	5353.7	
181.20	0.5520	1.747	-8899.1	0.02760	5241.3	
181.30	0.5517	1.740	-8898.8	0.02758	5219.7	
181.40	0.5520	1.749	-8904.8	0.02760	5248.2	
181.50	0.5524	1.758	-8910.8	0.02762	5275.2	
181.60	0.5528	1.768	-8916.6	0.02764	5302.9	
181.70	0.5531	1.776	-8921.6	0.02766	5327.0	
181.80	0.5534	1.781	-8923.3	0.02767	5343.7	
181.90	0.5521	1.745	-8899.3	0.02761	5234.1	
182.00	0.5519	1.738	-8899.3	0.02760	5214.4	
182.10	0.5523	1.748	-8905.3	0.02761	5244.3	
182.20	0.5527	1.757	-8911.1	0.02763	5271.3	
182.30	0.5532	1.766	-8917.2	0.02766	5299.2	
182.40	0.5536	1.775	-8922.7	0.02768	5325.2	
182.50	0.5539	1.783	-8927.9	0.02770	5348.8	
182.60	0.5544	1.790	-8932.0	0.02772	5368.9	
182.70	0.5543	1.776	-8919.8	0.02771	5328.2	
182.80	0.5539	1.763	-8915.3	0.02770	5288.4	
182.90	0.5543	1.771	-8920.8	0.02771	5311.7	
183.00	0.5546	1.779	-8926.3	0.02773	5336.3	
183.10	0.5550	1.786	-8931.9	0.02775	5359.2	
183.20	0.5569	1.780	-8923.5	0.02784	5339.7	
183.30	0.5627	1.743	-8904.0	0.02813	5228.6	
183.40	0.5638	1.747	-8908.4	0.02819	5241.1	
183.50	0.5642	1.756	-8914.1	0.02821	5268.3	
183.60	0.5646	1.765	-8919.9	0.02823	5296.5	
183.70	0.5651	1.774	-8925.2	0.02826	5322.3	
183.80	0.5657	1.782	-8930.7	0.02828	5347.1	
183.90	0.5666	1.788	-8932.6	0.02833	5363.2	
184.00	0.5739	1.753	-8910.8	0.02869	5260.0	
184.10	0.5769	1.748	-8911.1	0.02885	5244.4	
184.20	0.5774	1.758	-8917.0	0.02887	5272.7	
184.30	0.5779	1.767	-8922.8	0.02889	5300.4	
184.40	0.5784	1.776	-8928.8	0.02892	5327.6	
184.50	0.5789	1.784	-8934.2	0.02895	5352.8	
184.60	0.5795	1.792	-8939.2	0.02897	5376.7	
184.70	0.5802	1.796	-8938.2	0.02901	5387.4	
184.80	0.5819	1.771	-8913.0	0.02909	5313.1	
184.90	0.5833	1.764	-8912.8	0.02917	5292.2	
185.00	0.5843	1.769	-8918.6	0.02922	5308.2	
185.10	0.5851	1.776	-8923.6	0.02926	5327.3	
185.20	0.5860	1.781	-8927.7	0.02930	5344.0	
185.30	0.5871	1.784	-8929.6	0.02936	5353.5	
185.40	0.5915	1.769	-8921.0	0.02957	5307.5	
185.50	0.5944	1.764	-8921.1	0.02972	5291.3	
185.60	0.5951	1.772	-8926.4	0.02976	5314.9	
185.70	0.5957	1.780	-8931.5	0.02978	5339.5	
185.80	0.5963	1.788	-8936.6	0.02981	5362.5	
185.90	0.5970	1.794	-8941.4	0.02985	5383.3	
186.00	0.5981	1.797	-8941.6	0.02991	5390.4	
186.10	0.6050	1.765	-8926.4	0.03025	5293.8	
186.20	0.6076	1.762	-8929.1	0.03038	5286.5	
186.30	0.6081	1.771	-8935.1	0.03040	5313.7	
186.40	0.6086	1.780	-8940.8	0.03043	5340.6	
186.50	0.6092	1.789	-8946.5	0.03046	5366.2	
186.60	0.6097	1.797	-8952.2	0.03049	5390.8	
186.70	0.6103	1.803	-8957.6	0.03051	5410.5	
186.80	0.6129	1.795	-8942.7	0.03065	5384.4	
186.90	0.6210	1.758	-8913.0	0.03105	5273.7	
187.00	0.6224	1.762	-8919.4	0.03112	5287.3	
187.10	0.6229	1.772	-8927.9	0.03115	5315.6	
187.20	0.6234	1.781	-8937.5	0.03117	5342.1	
187.30	0.6240	1.789	-8950.6	0.03120	5367.7	
187.40	0.6246	1.797	-8972.2	0.03123	5392.4	
187.50	0.6255	1.802	-9129.9	0.03128	5405.9	
187.60	0.6332	1.766	-10082	0.03166	5297.7	
187.70	0.6363	1.761	-10274	0.03181	5282.2	
187.80	0.6367	1.770	-10286	0.03184	5310.6	
187.90	0.6373	1.780	-10307	0.03186	5338.6	
188.00	0.6378	1.788	-10330	0.03189	5364.0	
188.10	0.6384	1.796	-10362	0.03192	5389.3	
188.20	0.6391	1.803	-10423	0.03195	5410.2	
188.30	0.6434	1.787	-11121	0.03217	5360.2	
188.40	0.6498	1.761	-11655	0.03249	5283.4	
188.50	0.6506	1.769	-11678	0.03253	5306.0	
188.60	0.6511	1.778	-11695	0.03256	5333.3	
188.70	0.6516	1.787	-11710	0.03258	5360.1	
188.80	0.6522	1.795	-11722	0.03261	5384.9	
188.90	0.6527	1.803	-11733	0.03264	5408.1	
189.00	0.6550	1.799	-11728	0.03275	5397.6	
189.10	0.6631	1.761	-11711	0.03315	5283.1	
189.20	0.6647	1.765	-11720	0.03324	5293.6	
189.30	0.6652	1.774	-11729	0.03326	5321.7	
189.40	0.6656	1.783	-11739	0.03328	5349.7	
189.50	0.6663	1.792	-11748	0.03331	5376.4	
189.60	0.6668	1.800	-11757	0.03334	5401.2	
189.70	0.6674	1.808	-11765	0.03337	5425.1	
189.80	0.6675	1.799	-11756	0.03337	5398.2	
189.90	0.6661	1.758	-11736	0.03330	5273.8	
190.00	0.6663	1.762	-11741	0.03332	5287.2	
190.10	0.6667	1.772	-11748	0.03333	5314.9	
190.20	0.6671	1.781	-11755	0.03335	5342.3	
190.30	0.6676	1.790	-11762	0.03338	5368.6	
190.40	0.6680	1.798	-11769	0.03340	5394.4	
190.50	0.6683	1.806	-11775	0.03341	5417.8	
190.60	0.6687	1.812	-11781	0.03344	5436.8	
190.70	0.6689	1.812	-11781	0.03345	5436.6	
190.80	0.6686	1.802	-11777	0.03343	5404.6	
190.90	0.6689	1.807	-11782	0.03344	5419.5	
191.00	0.6693	1.814	-11787	0.03346	5441.1	
191.10	0.6696	1.819	-11791	0.03348	5458.0	
191.20	0.6697	1.819	-11788	0.03349	5457.1	
191.30	0.6687	1.788	-11769	0.03344	5363.8	
191.40	0.6687	1.788	-11772	0.03344	5364.6	
191.50	0.6692	1.797	-11778	0.03346	5391.3	
191.60	0.6696	1.805	-11784	0.03348	5415.6	
191.70	0.6699	1.813	-11790	0.03349	5439.1	
191.80	0.6702	1.819	-11794	0.03351	5457.8	
191.90	0.6706	1.823	-11797	0.03353	5470.4	
192.00	0.6704	1.810	-11787	0.03352	5430.8	
192.10	0.6701	1.803	-11785	0.03351	5409.1	
192.20	0.6705	1.811	-11791	0.03353	5432.7	
192.30	0.6709	1.818	-11796	0.03355	5454.4	
192.40	0.6714	1.825	-11799	0.03357	5473.9	
192.50	0.6784	1.789	-11772	0.03392	5366.8	
192.60	0.6851	1.760	-11763	0.03426	5281.1	
192.70	0.6857	1.769	-11769	0.03429	5308.0	
192.80	0.6863	1.778	-11775	0.03431	5334.6	
192.90	0.6867	1.787	-11781	0.03434	5360.7	
193.00	0.6874	1.796	-11787	0.03437	5387.4	
193.10	0.6879	1.804	-11792	0.03439	5412.4	
193.20	0.6886	1.812	-11798	0.03443	5435.7	
193.30	0.6920	1.801	-11786	0.03460	5402.9	
193.40	0.6989	1.771	-11772	0.03495	5313.1	
193.50	0.7000	1.778	-11777	0.03500	5332.5	
193.60	0.7004	1.786	-11783	0.03502	5359.3	
193.70	0.7010	1.796	-11789	0.03505	5387.1	
193.80	0.7015	1.804	-11795	0.03507	5413.2	
193.90	0.7020	1.813	-11801	0.03510	5438.2	
194.00	0.7026	1.821	-11806	0.03513	5462.6	
194.10	0.7032	1.827	-11811	0.03516	5482.3	
194.20	0.7038	1.833	-11814	0.03519	5497.6	
194.30	0.7041	1.826	-11808	0.03520	5478.5	
194.40	0.7048	1.825	-11806	0.03524	5475.7	
194.50	0.7055	1.831	-11809	0.03528	5491.7	
194.60	0.7062	1.835	-11813	0.03531	5504.2	
194.70	0.7065	1.824	-11804	0.03532	5472.7	
194.80	0.7053	1.785	-11787	0.03526	5355.6	
194.90	0.7055	1.790	-11791	0.03527	5369.7	
195.00	0.7060	1.800	-11797	0.03530	5398.8	
195.10	0.7064	1.808	-11803	0.03532	5424.2	
195.20	0.7067	1.817	-11809	0.03534	5450.3	
195.30	0.7072	1.825	-11815	0.03536	5475.2	
195.40	0.7076	1.832	-11820	0.03538	5496.6	
195.50	0.7080	1.839	-11824	0.03540	5516.1	
195.60	0.7083	1.843	-11828	0.03541	5529.9	
195.70	0.7082	1.836	-11818	0.03541	5506.8	
195.80	0.7066	1.795	-11798	0.03533	5384.3	
195.90	0.7067	1.797	-11802	0.03534	5392.3	
196.00	0.7071	1.807	-11808	0.03536	5420.9	
196.10	0.7074	1.815	-11814	0.03537	5446.5	
196.20	0.7079	1.824	-11819	0.03539	5471.5	
196.30	0.7082	1.832	-11823	0.03541	5494.7	
196.40	0.7068	1.796	-11795	0.03534	5389.5	
196.50	0.7061	1.777	-11790	0.03530	5331.9	
196.60	0.7065	1.787	-11796	0.03532	5360.0	
196.70	0.7068	1.796	-11802	0.03534	5387.3	
196.80	0.7072	1.805	-11808	0.03536	5415.2	
196.90	0.7076	1.814	-11814	0.03538	5441.8	
197.00	0.7080	1.823	-11820	0.03540	5468.2	
197.10	0.7083	1.831	-11825	0.03542	5492.5	
197.20	0.7087	1.838	-11830	0.03543	5514.5	
197.30	0.7090	1.845	-11834	0.03545	5533.9	
197.40	0.7092	1.846	-11832	0.03546	5536.9	
197.50	0.7078	1.807	-11808	0.03539	5421.4	
197.60	0.7076	1.803	-11810	0.03538	5410.3	
197.70	0.7079	1.813	-11815	0.03540	5438.0	
197.80	0.7084	1.821	-11821	0.03542	5464.4	
197.90	0.7087	1.830	-11827	0.03544	5489.7	
198.00	0.7091	1.838	-11832	0.03545	5514.4	
198.10	0.7095	1.845	-11837	0.03547	5535.5	
198.20	0.7097	1.849	-11836	0.03549	5547.9	
198.30	0.7076	1.791	-11796	0.03538	5372.2	
198.40	0.7069	1.777	-11793	0.03535	5330.0	
198.50	0.7074	1.787	-11800	0.03537	5361.1	
198.60	0.7078	1.796	-11806	0.03539	5388.8	
198.70	0.7081	1.805	-11812	0.03541	5416.0	
198.80	0.7085	1.815	-11817	0.03542	5443.8	
198.90	0.7089	1.823	-11823	0.03544	5469.2	
199.00	0.7093	1.832	-11828	0.03547	5495.1	
199.10	0.7096	1.839	-11833	0.03548	5517.0	
199.20	0.7098	1.843	-11834	0.03549	5530.1	
199.30	0.7085	1.810	-11811	0.03542	5429.6	
199.40	0.7082	1.803	-11810	0.03541	5407.8	
199.50	0.7086	1.812	-11816	0.03543	5436.4	
199.60	0.7089	1.821	-11822	0.03545	5463.6	
199.70	0.7094	1.830	-11828	0.03547	5490.0	
199.80	0.7098	1.839	-11834	0.03549	5517.3	
199.90	0.7101	1.847	-11839	0.03551	5541.2	
200.00	0.7105	1.854	-11844	0.03553	5562.8	
200.10	0.7111	1.843	-11829	0.03556	5528.3	
200.20	0.7132	1.791	-11801	0.03566	5371.9	
200.30	0.7138	1.795	-11806	0.03569	5384.0	
200.40	0.7142	1.804	-11812	0.03571	5411.7	
200.50	0.7146	1.813	-11818	0.03573	5438.8	
200.60	0.7150	1.822	-11823	0.03575	5465.3	
200.70	0.7155	1.830	-11828	0.03578	5489.5	
200.80	0.7161	1.837	-11831	0.03580	5509.6	
200.90	0.7181	1.803	-11806	0.03591	5410.2	
201.00	0.7194	1.793	-11804	0.03597	5378.1	
201.10	0.7198	1.802	-11810	0.03599	5406.7	
201.20	0.7202	1.811	-11816	0.03601	5433.2	
201.30	0.7208	1.820	-11821	0.03604	5460.7	
201.40	0.7212	1.829	-11827	0.03606	5486.2	
201.50	0.7219	1.831	-11825	0.03610	5494.0	
201.60	0.7242	1.800	-11806	0.03621	5401.0	
201.70	0.7251	1.801	-11808	0.03625	5402.1	
201.80	0.7255	1.810	-11814	0.03628	5430.7	
201.90	0.7259	1.819	-11820	0.03629	5458.0	
202.00	0.7264	1.829	-11826	0.03632	5485.7	
202.10	0.7268	1.838	-11832	0.03634	5513.0	
202.20	0.7272	1.846	-11837	0.03636	5537.7	
202.30	0.7276	1.854	-11842	0.03638	5560.7	
202.40	0.7271	1.834	-11821	0.03636	5500.8	
202.50	0.7257	1.795	-11803	0.03628	5385.1	
202.60	0.7260	1.802	-11809	0.03630	5406.4	
202.70	0.7264	1.811	-11815	0.03632	5434.3	
202.80	0.7268	1.821	-11821	0.03634	5462.4	
202.90	0.7272	1.830	-11827	0.03636	5490.0	
203.00	0.7276	1.839	-11833	0.03638	5516.7	
203.10	0.7281	1.848	-11838	0.03640	5543.0	
203.20	0.7285	1.855	-11843	0.03642	5565.7	
203.30	0.7286	1.858	-11845	0.03643	5572.6	
203.40	0.7286	1.858	-11846	0.03643	5572.9	
203.50	0.7289	1.863	-11850	0.03645	5588.8	
203.60	0.7289	1.860	-11844	0.03645	5579.9	
203.70	0.7282	1.840	-11833	0.03641	5521.0	
203.80	0.7284	1.846	-11838	0.03642	5536.7	
203.90	0.7288	1.854	-11843	0.03644	5560.7	
204.00	0.7292	1.861	-11849	0.03646	5582.7	
204.10	0.7296	1.867	-11858	0.03648	5601.8	
204.20	0.7359	1.835	-11839	0.03679	5506.3	
204.30	0.7433	1.802	-11825	0.03717	5406.1	
204.40	0.7440	1.810	-11831	0.03720	5430.9	
204.50	0.7446	1.819	-11836	0.03723	5456.9	
204.60	0.7452	1.828	-11842	0.03726	5484.9	
204.70	0.7457	1.837	-11847	0.03728	5510.3	
204.80	0.7462	1.846	-11853	0.03731	5536.6	
204.90	0.7468	1.854	-11858	0.03734	5560.8	
205.00	0.7475	1.860	-11863	0.03738	5581.0	
205.10	0.7487	1.864	-11864	0.03744	5591.7	
205.20	0.7563	1.827	-11842	0.03782	5482.0	
205.30	0.7592	1.823	-11843	0.03796	5467.7	
205.40	0.7599	1.832	-11849	0.03799	5497.0	
205.50	0.7604	1.841	-11855	0.03802	5523.0	
205.60	0.7608	1.850	-11861	0.03804	5550.3	
205.70	0.7614	1.858	-11866	0.03807	5575.4	
205.80	0.7621	1.866	-11871	0.03810	5597.7	
205.90	0.7627	1.872	-11875	0.03814	5616.4	
206.00	0.7667	1.857	-11859	0.03833	5570.4	
206.10	0.7745	1.821	-11842	0.03872	5463.2	
206.20	0.7756	1.827	-11847	0.03878	5481.6	
206.30	0.7762	1.836	-11853	0.03881	5508.7	
206.40	0.7767	1.846	-11859	0.03884	5536.8	
206.50	0.7773	1.854	-11865	0.03886	5562.7	
206.60	0.7778	1.863	-11870	0.03889	5588.6	
206.70	0.7784	1.870	-11875	0.03892	5611.3	
206.80	0.7790	1.877	-11878	0.03895	5630.2	
206.90	0.7807	1.876	-11862	0.03903	5627.1	
207.00	0.7900	1.829	-11806	0.03950	5485.7	
207.10	0.7925	1.826	-11808	0.03962	5479.3	
207.20	0.7931	1.836	-11817	0.03965	5508.5	
207.30	0.7936	1.845	-11825	0.03968	5534.8	
207.40	0.7941	1.854	-11835	0.03971	5562.1	
207.50	0.7947	1.862	-11846	0.03974	5586.9	
207.60	0.7953	1.870	-11860	0.03977	5610.7	
207.70	0.7959	1.877	-11883	0.03980	5629.8	
207.80	0.7976	1.875	-12144	0.03988	5625.8	
207.90	0.8066	1.830	-13031	0.04033	5489.9	
208.00	0.8092	1.828	-13149	0.04046	5485.0	
208.10	0.8096	1.838	-13163	0.04048	5513.2	
208.20	0.8102	1.847	-13182	0.04051	5540.0	
208.30	0.8108	1.855	-13202	0.04054	5565.9	
208.40	0.8113	1.864	-13224	0.04057	5591.3	
208.50	0.8118	1.871	-13253	0.04059	5613.8	
208.60	0.8125	1.878	-13292	0.04062	5633.8	
208.70	0.8132	1.842	-13306	0.04066	5526.4	
208.80	0.8135	1.800	-13298	0.04068	5399.2	
208.90	0.8140	1.808	-13305	0.04070	5424.4	
209.00	0.8143	1.817	-13313	0.04071	5451.3	
209.10	0.8148	1.827	-13321	0.04074	5479.6	
209.20	0.8153	1.835	-13328	0.04077	5506.3	
209.30	0.8158	1.844	-13335	0.04079	5530.8	
209.40	0.8163	1.851	-13343	0.04081	5554.5	
209.50	0.8162	1.844	-13335	0.04081	5532.2	
209.60	0.8148	1.809	-13318	0.04074	5426.9	
209.70	0.8149	1.814	-13323	0.04075	5440.9	
209.80	0.8154	1.823	-13329	0.04077	5467.9	
209.90	0.8158	1.832	-13336	0.04079	5496.1	
210.00	0.8163	1.841	-13343	0.04081	5522.0	
210.10	0.8167	1.849	-13349	0.04083	5548.5	
210.20	0.8171	1.858	-13356	0.04086	5573.0	
210.30	0.8174	1.864	-13362	0.04087	5593.0	
210.40	0.8172	1.855	-13353	0.04086	5564.4	
210.50	0.8163	1.830	-13343	0.04081	5490.2	
210.60	0.8166	1.837	-13349	0.04083	5510.2	
210.70	0.8169	1.846	-13355	0.04084	5537.8	
210.80	0.8173	1.855	-13362	0.04086	5563.5	
210.90	0.8179	1.864	-13369	0.04089	5590.9	
211.00	0.8182	1.871	-13376	0.04091	5613.7	
211.10	0.8206	1.863	-13365	0.04103	5588.8	
211.20	0.8296	1.815	-13341	0.04148	5445.6	
211.30	0.8311	1.818	-13346	0.04155	5455.0	
211.40	0.8316	1.828	-13352	0.04158	5484.4	
211.50	0.8321	1.837	-13358	0.04161	5511.8	
211.60	0.8325	1.846	-13364	0.04162	5538.8	
211.70	0.8330	1.855	-13371	0.04165	5566.4	
211.80	0.8335	1.864	-13378	0.04168	5592.4	
211.90	0.8340	1.873	-13385	0.04170	5617.9	
212.00	0.8346	1.880	-13393	0.04173	5639.1	
212.10	0.8419	1.843	-13380	0.04209	5528.1	
212.20	0.8472	1.824	-13379	0.04236	5472.2	
212.30	0.8478	1.833	-13386	0.04239	5499.5	
212.40	0.8482	1.842	-13392	0.04241	5526.1	
212.50	0.8488	1.851	-13399	0.04244	5552.8	
212.60	0.8494	1.859	-13405	0.04247	5577.9	
212.70	0.8500	1.868	-13411	0.04250	5603.0	
212.80	0.8506	1.875	-13416	0.04253	5624.9	
212.90	0.8509	1.870	-13407	0.04254	5608.7	
213.00	0.8505	1.851	-13395	0.04252	5554.5	
213.10	0.8509	1.857	-13401	0.04254	5571.0	
213.20	0.8513	1.865	-13410	0.04257	5595.6	
213.30	0.8521	1.871	-13441	0.04260	5613.7	
213.40	0.8583	1.843	-13860	0.04291	5527.7	
213.50	0.8633	1.826	-14057	0.04316	5478.1	
213.60	0.8640	1.835	-14076	0.04320	5503.5	
213.70	0.8645	1.844	-14096	0.04322	5531.0	
213.80	0.8650	1.852	-14114	0.04325	5557.1	
213.90	0.8656	1.861	-14135	0.04328	5583.1	
214.00	0.8662	1.870	-14158	0.04331	5608.6	
214.10	0.8668	1.877	-14187	0.04334	5630.9	
214.20	0.8675	1.883	-14226	0.04338	5650.0	
214.30	0.8695	1.878	-14260	0.04348	5634.6	
214.40	0.8776	1.835	-14247	0.04388	5505.2	
214.50	0.8798	1.834	-14252	0.04399	5502.8	
214.60	0.8803	1.843	-14261	0.04401	5529.9	
214.70	0.8809	1.853	-14270	0.04404	5557.9	
214.80	0.8813	1.861	-14279	0.04407	5583.5	
214.90	0.8820	1.870	-14289	0.04410	5609.3	
215.00	0.8827	1.878	-14299	0.04413	5633.8	
215.10	0.8833	1.885	-14310	0.04416	5654.3	
215.20	0.8839	1.891	-14323	0.04420	5673.2	
215.30	0.8877	1.875	-14315	0.04438	5624.5	
215.40	0.8966	1.833	-14295	0.04483	5498.5	
215.50	0.8980	1.838	-14301	0.04490	5514.9	
215.60	0.8985	1.847	-14307	0.04493	5541.6	
215.70	0.8990	1.856	-14315	0.04495	5569.2	
215.80	0.8996	1.865	-14322	0.04498	5595.4	
215.90	0.9001	1.874	-14330	0.04501	5621.1	
216.00	0.9007	1.882	-14337	0.04503	5646.3	
216.10	0.9013	1.889	-14345	0.04506	5667.5	
216.20	0.9021	1.896	-14353	0.04510	5687.3	
216.30	0.9029	1.898	-14354	0.04514	5692.6	
216.40	0.9020	1.850	-14323	0.04510	5550.5	
216.50	0.9017	1.840	-14322	0.04508	5519.3	
216.60	0.9021	1.848	-14328	0.04511	5545.3	
216.70	0.9025	1.857	-14334	0.04513	5571.3	
216.80	0.9029	1.865	-14341	0.04515	5596.3	
216.90	0.9034	1.874	-14347	0.04517	5620.6	
217.00	0.9038	1.882	-14354	0.04519	5644.9	
217.10	0.9042	1.889	-14361	0.04521	5665.9	
217.20	0.9047	1.895	-14368	0.04523	5684.3	
217.30	0.9049	1.896	-14371	0.04525	5686.8	
217.40	0.9049	1.892	-14372	0.04524	5676.4	
217.50	0.9046	1.883	-14365	0.04523	5649.0	
217.60	0.9037	1.859	-14353	0.04519	5577.6	
217.70	0.9038	1.862	-14357	0.04519	5584.6	
217.80	0.9041	1.870	-14363	0.04521	5609.7	
217.90	0.9045	1.878	-14369	0.04523	5634.4	
218.00	0.9049	1.886	-14376	0.04525	5659.0	
218.10	0.9053	1.894	-14382	0.04526	5681.2	
218.20	0.9057	1.900	-14388	0.04528	5701.0	
218.30	0.9060	1.905	-14393	0.04530	5715.1	
218.40	0.9062	1.906	-14395	0.04531	5718.3	
218.50	0.9061	1.903	-14394	0.04531	5707.9	
218.60	0.9060	1.899	-14394	0.04530	5697.6	
218.70	0.9062	1.900	-14396	0.04531	5700.3	
218.80	0.9062	1.903	-14400	0.04531	5707.6	
218.90	0.9064	1.904	-14403	0.04532	5713.1	
219.00	0.9057	1.886	-14388	0.04529	5656.7	
219.10	0.9048	1.864	-14379	0.04524	5592.4	
219.20	0.9051	1.871	-14385	0.04525	5613.5	
219.30	0.9055	1.879	-14391	0.04527	5638.5	
219.40	0.9058	1.887	-14397	0.04529	5662.5	
219.50	0.9062	1.896	-14404	0.04531	5687.4	
219.60	0.9066	1.902	-14409	0.04533	5707.0	
219.70	0.9068	1.907	-14413	0.04534	5720.7	
219.80	0.9061	1.887	-14400	0.04530	5661.5	
219.90	0.9058	1.881	-14399	0.04529	5641.5	
220.00	0.9062	1.889	-14405	0.04531	5667.3	
220.10	0.9066	1.897	-14411	0.04533	5691.1	
220.20	0.9070	1.905	-14418	0.04535	5714.7	
220.30	0.9073	1.912	-14424	0.04536	5735.2	
220.40	0.9076	1.917	-14430	0.04538	5752.1	
220.50	0.9076	1.916	-14429	0.04538	5748.2	
220.60	0.9068	1.893	-14417	0.04534	5679.9	
220.70	0.9069	1.897	-14422	0.04535	5690.6	
220.80	0.9073	1.905	-14428	0.04536	5714.3	
220.90	0.9076	1.909	-14430	0.04538	5726.5	
221.00	0.9057	1.858	-14397	0.04528	5574.6	
221.10	0.9051	1.847	-14394	0.04526	5539.8	
221.20	0.9055	1.856	-14401	0.04527	5567.8	
221.30	0.9059	1.865	-14407	0.04529	5595.5	
221.40	0.9062	1.874	-14413	0.04531	5620.8	
221.50	0.9066	1.882	-14419	0.04533	5646.9	
221.60	0.9069	1.891	-14425	0.04534	5671.5	
221.70	0.9072	1.898	-14431	0.04536	5694.4	
221.80	0.9076	1.905	-14436	0.04538	5715.3	
221.90	0.9077	1.907	-14436	0.04538	5722.3	
222.00	0.9062	1.869	-14411	0.04531	5606.5	
222.10	0.9060	1.863	-14411	0.04530	5588.2	
222.20	0.9064	1.872	-14417	0.04532	5614.6	
222.30	0.9067	1.881	-14423	0.04534	5642.2	
222.40	0.9070	1.889	-14429	0.04535	5667.6	
222.50	0.9075	1.898	-14436	0.04538	5694.0	
222.60	0.9079	1.906	-14441	0.04539	5718.2	
222.70	0.9081	1.913	-14447	0.04541	5738.5	
222.80	0.9084	1.918	-14452	0.04542	5754.9	
222.90	0.9080	1.905	-14439	0.04540	5716.3	
223.00	0.9068	1.876	-14426	0.04534	5629.3	
223.10	0.9070	1.882	-14431	0.04535	5647.2	
223.20	0.9074	1.891	-14437	0.04537	5672.8	
223.30	0.9078	1.900	-14443	0.04539	5699.3	
223.40	0.9081	1.908	-14449	0.04541	5723.5	
223.50	0.9085	1.916	-14455	0.04543	5746.9	
223.60	0.9089	1.923	-14461	0.04544	5767.9	
223.70	0.9091	1.928	-14466	0.04546	5783.0	
223.80	0.9088	1.914	-14452	0.04544	5740.5	
223.90	0.9071	1.854	-14420	0.04536	5562.1	
224.00	0.9073	1.854	-14423	0.04536	5562.5	
224.10	0.9077	1.864	-14429	0.04539	5591.5	
224.20	0.9080	1.873	-14435	0.04540	5618.2	
224.30	0.9084	1.882	-14441	0.04542	5645.6	
224.40	0.9088	1.891	-14447	0.04544	5671.8	
224.50	0.9092	1.899	-14453	0.04546	5696.8	
224.60	0.9096	1.907	-14458	0.04548	5719.6	
224.70	0.9104	1.906	-14453	0.04552	5717.9	
224.80	0.9124	1.861	-14426	0.04562	5582.2	
224.90	0.9133	1.859	-14428	0.04566	5577.4	
225.00	0.9137	1.868	-14434	0.04568	5605.4	
225.10	0.9141	1.877	-14440	0.04570	5632.4	
225.20	0.9144	1.886	-14446	0.04572	5657.8	
225.30	0.9149	1.895	-14451	0.04574	5683.7	
225.40	0.9154	1.902	-14457	0.04577	5706.8	
225.50	0.9163	1.893	-14444	0.04582	5680.0	
225.60	0.9181	1.854	-14423	0.04591	5562.8	
225.70	0.9186	1.858	-14428	0.04593	5574.6	
225.80	0.9190	1.868	-14434	0.04595	5602.5	
225.90	0.9194	1.876	-14440	0.04597	5629.4	
226.00	0.9198	1.885	-14445	0.04599	5654.9	
226.10	0.9203	1.894	-14451	0.04601	5681.9	
226.20	0.9207	1.902	-14456	0.04603	5704.5	
226.30	0.9215	1.904	-14454	0.04607	5713.0	
226.40	0.9245	1.868	-14430	0.04623	5602.9	
226.50	0.9257	1.866	-14431	0.04628	5597.3	
226.60	0.9261	1.876	-14438	0.04631	5626.8	
226.70	0.9265	1.885	-14444	0.04633	5653.6	
226.80	0.9269	1.894	-14450	0.04635	5681.7	
226.90	0.9274	1.903	-14456	0.04637	5708.7	
227.00	0.9279	1.911	-14462	0.04639	5733.6	
227.10	0.9283	1.919	-14468	0.04641	5757.7	
227.20	0.9287	1.926	-14474	0.04644	5777.6	
227.30	0.9292	1.931	-14480	0.04646	5794.3	
227.40	0.9304	1.932	-14489	0.04652	5795.2	
227.50	0.9329	1.923	-14490	0.04665	5768.7	
227.60	0.9349	1.920	-14491	0.04674	5758.6	
227.70	0.9363	1.920	-14493	0.04681	5759.8	
227.80	0.9379	1.920	-14495	0.04690	5758.5	
227.90	0.9451	1.885	-14476	0.04726	5656.0	
228.00	0.9490	1.874	-14474	0.04745	5623.0	
228.10	0.9497	1.883	-14480	0.04748	5648.2	
228.20	0.9503	1.891	-14486	0.04751	5672.7	
228.30	0.9509	1.899	-14492	0.04755	5697.9	
228.40	0.9516	1.907	-14497	0.04758	5721.5	
228.50	0.9522	1.914	-14502	0.04761	5742.7	
228.60	0.9528	1.921	-14507	0.04764	5764.1	
228.70	0.9536	1.927	-14510	0.04768	5781.9	
228.80	0.9549	1.930	-14514	0.04775	5790.1	
228.90	0.9633	1.889	-14564	0.04817	5668.0	
229.00	0.9672	1.879	-14599	0.04836	5636.5	
229.10	0.9678	1.888	-14617	0.04839	5663.1	
229.20	0.9684	1.896	-14637	0.04842	5689.2	
229.30	0.9691	1.905	-14663	0.04846	5714.1	
229.40	0.9697	1.912	-14707	0.04849	5736.8	
229.50	0.9713	1.914	-15105	0.04856	5741.2	
229.60	0.9803	1.871	-16483	0.04901	5612.1	
229.70	0.9829	1.868	-16666	0.04914	5604.8	
229.80	0.9833	1.878	-16678	0.04917	5632.9	
229.90	0.9840	1.887	-16697	0.04920	5660.1	
230.00	0.9844	1.896	-16714	0.04922	5687.5	
230.10	0.9850	1.905	-16732	0.04925	5715.6	
230.20	0.9855	1.914	-16752	0.04928	5741.4	
230.30	0.9861	1.922	-16774	0.04931	5765.9	
230.40	0.9867	1.930	-16801	0.04933	5790.3	
230.50	0.9874	1.937	-16836	0.04937	5809.8	
230.60	0.9881	1.942	-16891	0.04941	5825.8	
230.70	0.9915	1.929	-17449	0.04958	5786.7	
230.80	0.9995	1.892	-18144	0.04997	5675.5	
230.90	1.001	1.897	-18190	0.05004	5690.1	
231.00	1.002	1.905	-18208	0.05008	5715.9	
231.10	1.002	1.914	-18225	0.05011	5741.3	
231.20	1.003	1.922	-18240	0.05014	5765.2	
231.30	1.004	1.929	-18254	0.05018	5785.9	
231.40	1.006	1.925	-18253	0.05030	5773.9	
231.50	1.013	1.893	-18248	0.05066	5678.4	
231.60	1.015	1.897	-18261	0.05074	5690.6	
231.70	1.015	1.906	-18273	0.05076	5718.3	
231.80	1.016	1.914	-18284	0.05079	5743.5	
231.90	1.016	1.923	-18295	0.05082	5770.3	
232.00	1.017	1.931	-18305	0.05085	5793.9	
232.10	1.018	1.938	-18317	0.05088	5814.9	
232.20	1.021	1.927	-18314	0.05105	5782.0	
232.30	1.030	1.882	-18298	0.05152	5646.2	
232.40	1.032	1.886	-18304	0.05159	5658.4	
232.50	1.032	1.895	-18311	0.05162	5686.3	
232.60	1.033	1.904	-18318	0.05164	5713.2	
232.70	1.033	1.913	-18325	0.05167	5740.2	
232.80	1.034	1.922	-18332	0.05170	5765.1	
232.90	1.035	1.930	-18340	0.05173	5789.8	
233.00	1.035	1.937	-18347	0.05176	5811.3	
233.10	1.038	1.931	-18339	0.05189	5792.8	
233.20	1.050	1.867	-18298	0.05251	5602.3	
233.30	1.053	1.865	-18301	0.05264	5596.4	
233.40	1.053	1.875	-18307	0.05265	5625.6	
233.50	1.054	1.884	-18313	0.05268	5651.9	
233.60	1.054	1.893	-18319	0.05271	5677.7	
233.70	1.055	1.902	-18325	0.05274	5704.9	
233.80	1.055	1.910	-18332	0.05277	5729.3	
233.90	1.056	1.918	-18338	0.05281	5752.9	
234.00	1.057	1.925	-18345	0.05284	5775.0	
234.10	1.058	1.931	-18351	0.05289	5791.7	
234.20	1.065	1.898	-18328	0.05324	5693.7	
234.30	1.070	1.879	-18321	0.05350	5635.7	
234.40	1.071	1.887	-18327	0.05353	5662.0	
234.50	1.071	1.896	-18333	0.05357	5688.6	
234.60	1.072	1.905	-18339	0.05360	5714.4	
234.70	1.073	1.913	-18345	0.05364	5740.0	
234.80	1.074	1.921	-18351	0.05368	5761.7	
234.90	1.076	1.915	-18345	0.05381	5745.2	
235.00	1.083	1.885	-18331	0.05417	5653.9	
235.10	1.085	1.889	-18336	0.05423	5666.1	
235.20	1.085	1.898	-18342	0.05426	5693.9	
235.30	1.086	1.907	-18348	0.05429	5719.8	
235.40	1.086	1.916	-18354	0.05432	5747.1	
235.50	1.087	1.925	-18360	0.05435	5773.8	
235.60	1.088	1.933	-18366	0.05438	5798.4	
235.70	1.088	1.940	-18372	0.05440	5821.3	
235.80	1.089	1.945	-18376	0.05444	5833.5	
235.90	1.094	1.894	-18337	0.05472	5681.6	
236.00	1.098	1.864	-18325	0.05491	5591.1	
236.10	1.099	1.872	-18331	0.05494	5617.0	
236.20	1.099	1.882	-18337	0.05496	5644.9	
236.30	1.100	1.890	-18343	0.05498	5670.8	
236.40	1.100	1.899	-18349	0.05501	5697.6	
236.50	1.101	1.908	-18355	0.05503	5723.5	
236.60	1.101	1.916	-18360	0.05506	5746.6	
236.70	1.102	1.923	-18365	0.05508	5768.5	
236.80	1.101	1.896	-18341	0.05503	5687.5	
236.90	1.100	1.870	-18331	0.05499	5611.3	
237.00	1.100	1.879	-18337	0.05501	5636.8	
237.10	1.101	1.888	-18343	0.05503	5663.4	
237.20	1.101	1.897	-18349	0.05505	5691.8	
237.30	1.101	1.906	-18355	0.05507	5717.9	
237.40	1.102	1.914	-18361	0.05509	5742.4	
237.50	1.102	1.922	-18366	0.05511	5766.4	
237.60	1.103	1.926	-18366	0.05513	5777.9	
237.70	1.101	1.889	-18342	0.05505	5666.5	
237.80	1.101	1.884	-18343	0.05504	5652.0	
237.90	1.101	1.893	-18349	0.05506	5679.1	
238.00	1.102	1.902	-18355	0.05508	5706.7	
238.10	1.102	1.911	-18361	0.05510	5732.1	
238.20	1.103	1.919	-18367	0.05513	5758.5	
238.30	1.103	1.928	-18373	0.05514	5783.7	
238.40	1.103	1.935	-18378	0.05516	5804.9	
238.50	1.102	1.905	-18351	0.05510	5714.4	
238.60	1.100	1.865	-18334	0.05502	5595.9	
238.70	1.101	1.873	-18340	0.05503	5618.8	
238.80	1.101	1.882	-18346	0.05505	5646.1	
238.90	1.101	1.891	-18352	0.05507	5672.3	
239.00	1.102	1.900	-18358	0.05510	5700.2	
239.10	1.102	1.909	-18364	0.05512	5726.0	
239.20	1.103	1.917	-18369	0.05514	5750.7	
239.30	1.103	1.924	-18374	0.05515	5772.9	
239.40	1.102	1.910	-18360	0.05512	5729.7	
239.50	1.101	1.883	-18348	0.05507	5649.7	
239.60	1.102	1.890	-18354	0.05508	5670.2	
239.70	1.102	1.899	-18360	0.05510	5697.6	
239.80	1.102	1.908	-18366	0.05512	5724.4	
239.90	1.103	1.917	-18372	0.05514	5750.9	
240.00	1.103	1.926	-18378	0.05516	5777.4	
240.10	1.104	1.934	-18384	0.05518	5801.6	
240.20	1.104	1.940	-18389	0.05520	5818.5	
240.30	1.105	1.924	-18393	0.05523	5772.0	
240.40	1.106	1.907	-18387	0.05529	5722.3	
240.50	1.106	1.903	-18384	0.05530	5709.1	
240.60	1.106	1.906	-18387	0.05530	5717.1	
240.70	1.106	1.912	-18391	0.05532	5735.5	
240.80	1.107	1.919	-18395	0.05534	5756.1	
240.90	1.107	1.924	-18399	0.05536	5773.2	
241.00	1.107	1.915	-18388	0.05535	5744.7	
241.10	1.106	1.889	-18376	0.05530	5667.5	
241.20	1.106	1.895	-18381	0.05531	5685.4	
241.30	1.107	1.904	-18387	0.05534	5712.6	
241.40	1.107	1.913	-18393	0.05535	5737.9	
241.50	1.108	1.921	-18399	0.05538	5764.1	
241.60	1.108	1.930	-18404	0.05539	5788.7	
241.70	1.108	1.937	-18410	0.05542	5810.4	
241.80	1.109	1.940	-18399	0.05547	5819.6	
241.90	1.113	1.924	-18363	0.05566	5772.6	
242.00	1.115	1.924	-18363	0.05575	5772.2	
242.10	1.116	1.930	-18369	0.05579	5789.7	
242.20	1.117	1.934	-18374	0.05583	5803.3	
242.30	1.117	1.938	-18379	0.05587	5813.9	
242.40	1.117	1.913	-18364	0.05585	5739.7	
242.50	1.117	1.899	-18361	0.05583	5698.1	
242.60	1.117	1.908	-18368	0.05585	5723.5	
242.70	1.117	1.916	-18374	0.05587	5748.1	
242.80	1.118	1.925	-18379	0.05589	5773.9	
242.90	1.118	1.932	-18385	0.05592	5797.0	
243.00	1.119	1.939	-18390	0.05594	5818.4	
243.10	1.119	1.945	-18394	0.05596	5835.4	
243.20	1.120	1.946	-18396	0.05598	5838.9	
243.30	1.120	1.946	-18397	0.05599	5836.7	
243.40	1.120	1.948	-18400	0.05600	5845.2	
243.50	1.120	1.952	-18402	0.05602	5855.0	
243.60	1.121	1.950	-18398	0.05606	5850.1	
243.70	1.123	1.943	-18388	0.05614	5830.4	
243.80	1.127	1.926	-18373	0.05634	5778.3	
243.90	1.133	1.896	-18358	0.05667	5688.8	
244.00	1.135	1.901	-18362	0.05673	5702.7	
244.10	1.135	1.909	-18368	0.05676	5727.5	
244.20	1.136	1.917	-18373	0.05679	5752.1	
244.30	1.136	1.926	-18379	0.05682	5777.6	
244.40	1.137	1.934	-18384	0.05684	5801.5	
244.50	1.137	1.941	-18390	0.05687	5824.0	
244.60	1.138	1.948	-18395	0.05690	5845.2	
244.70	1.139	1.953	-18399	0.05693	5858.2	
244.80	1.138	1.924	-18377	0.05690	5770.8	
244.90	1.137	1.896	-18366	0.05685	5686.7	
245.00	1.137	1.903	-18372	0.05686	5709.4	
245.10	1.138	1.912	-18378	0.05689	5735.4	
245.20	1.138	1.920	-18383	0.05690	5760.4	
245.30	1.139	1.929	-18389	0.05693	5786.3	
245.40	1.139	1.937	-18394	0.05695	5810.1	
245.50	1.139	1.945	-18400	0.05697	5833.6	
245.60	1.140	1.952	-18404	0.05699	5855.3	
245.70	1.140	1.956	-18407	0.05701	5869.3	
245.80	1.139	1.929	-18386	0.05696	5786.7	
245.90	1.139	1.914	-18382	0.05693	5743.1	
246.00	1.139	1.923	-18387	0.05694	5767.8	
246.10	1.139	1.931	-18393	0.05697	5794.2	
246.20	1.140	1.940	-18398	0.05699	5818.9	
246.30	1.140	1.948	-18404	0.05700	5844.2	
246.40	1.140	1.956	-18410	0.05702	5868.5	
246.50	1.141	1.964	-18415	0.05705	5890.8	
246.60	1.142	1.970	-18418	0.05708	5910.5	
246.70	1.144	1.957	-18394	0.05720	5870.0	
246.80	1.151	1.914	-18365	0.05754	5743.0	
246.90	1.152	1.916	-18369	0.05762	5749.0	
247.00	1.153	1.924	-18374	0.05764	5773.1	
247.10	1.153	1.933	-18380	0.05767	5798.3	
247.20	1.154	1.941	-18385	0.05770	5821.9	
247.30	1.154	1.948	-18391	0.05772	5844.6	
247.40	1.155	1.955	-18395	0.05775	5864.1	
247.50	1.156	1.952	-18389	0.05780	5855.4	
247.60	1.160	1.910	-18365	0.05800	5731.3	
247.70	1.161	1.909	-18367	0.05807	5727.3	
247.80	1.162	1.918	-18373	0.05809	5753.9	
247.90	1.162	1.927	-18379	0.05811	5780.7	
248.00	1.163	1.935	-18385	0.05814	5805.7	
248.10	1.163	1.944	-18390	0.05816	5831.6	
248.20	1.164	1.952	-18396	0.05819	5854.7	
248.30	1.164	1.958	-18400	0.05821	5874.3	
248.40	1.166	1.947	-18386	0.05829	5841.8	
248.50	1.169	1.907	-18366	0.05846	5722.5	
248.60	1.170	1.912	-18371	0.05850	5735.6	
248.70	1.170	1.921	-18377	0.05852	5762.6	
248.80	1.171	1.930	-18382	0.05855	5788.8	
248.90	1.171	1.938	-18389	0.05857	5815.5	
249.00	1.172	1.947	-18394	0.05859	5839.8	
249.10	1.172	1.955	-18400	0.05861	5863.9	
249.20	1.173	1.961	-18404	0.05864	5883.7	
249.30	1.174	1.934	-18380	0.05870	5801.0	
249.40	1.175	1.908	-18370	0.05877	5724.3	
249.50	1.176	1.916	-18376	0.05879	5748.2	
249.60	1.176	1.925	-18382	0.05881	5775.4	
249.70	1.177	1.934	-18388	0.05884	5802.3	
249.80	1.177	1.943	-18393	0.05886	5827.9	
249.90	1.178	1.951	-18399	0.05888	5853.6	
250.00	1.178	1.959	-18404	0.05890	5876.3	
250.10	1.178	1.965	-18409	0.05892	5896.4	
250.20	1.178	1.934	-18382	0.05888	5801.9	
250.30	1.177	1.909	-18373	0.05883	5726.2	
250.40	1.177	1.917	-18379	0.05885	5752.0	
250.50	1.177	1.926	-18385	0.05887	5778.1	
250.60	1.178	1.935	-18391	0.05889	5804.8	
250.70	1.178	1.944	-18397	0.05891	5831.3	
250.80	1.179	1.952	-18402	0.05893	5856.3	
250.90	1.179	1.960	-18407	0.05895	5879.7	
251.00	1.179	1.957	-18401	0.05895	5871.5	
251.10	1.177	1.911	-18375	0.05886	5732.8	
251.20	1.177	1.911	-18378	0.05886	5733.0	
251.30	1.178	1.920	-18384	0.05888	5760.2	
251.40	1.178	1.929	-18390	0.05890	5787.4	
251.50	1.178	1.938	-18395	0.05892	5813.3	
251.60	1.179	1.947	-18401	0.05893	5839.5	
251.70	1.179	1.955	-18407	0.05895	5864.2	
251.80	1.179	1.962	-18412	0.05897	5885.0	
251.90	1.179	1.943	-18393	0.05894	5828.6	
252.00	1.177	1.909	-18378	0.05887	5728.1	
252.10	1.178	1.916	-18384	0.05888	5748.1	
252.20	1.178	1.925	-18390	0.05890	5775.4	
252.30	1.178	1.934	-18395	0.05892	5800.9	
252.40	1.179	1.942	-18401	0.05894	5827.2	
252.50	1.179	1.951	-18407	0.05896	5851.8	
252.60	1.180	1.958	-18412	0.05898	5875.2	
252.70	1.180	1.966	-18417	0.05900	5897.3	
252.80	1.179	1.947	-18399	0.05896	5839.7	
252.90	1.178	1.914	-18385	0.05889	5743.3	
253.00	1.178	1.921	-18391	0.05891	5764.1	
253.10	1.179	1.930	-18396	0.05893	5790.8	
253.20	1.179	1.939	-18403	0.05895	5818.3	
253.30	1.179	1.948	-18409	0.05897	5843.7	
253.40	1.180	1.956	-18414	0.05898	5868.9	
253.50	1.180	1.965	-18420	0.05901	5893.7	
253.60	1.181	1.971	-18425	0.05903	5912.3	
253.70	1.179	1.941	-18402	0.05897	5822.0	
253.80	1.179	1.921	-18396	0.05893	5761.9	
253.90	1.179	1.929	-18402	0.05894	5787.9	
254.00	1.179	1.938	-18408	0.05897	5814.5	
254.10	1.180	1.947	-18413	0.05898	5840.0	
254.20	1.180	1.955	-18420	0.05900	5866.1	
254.30	1.180	1.964	-18426	0.05902	5890.5	
254.40	1.181	1.971	-18431	0.05904	5913.7	
254.50	1.181	1.976	-18431	0.05907	5926.5	
254.60	1.189	1.934	-18393	0.05944	5802.9	
254.70	1.194	1.916	-18387	0.05969	5748.2	
254.80	1.195	1.925	-18392	0.05973	5774.4	
254.90	1.195	1.934	-18398	0.05975	5800.9	
255.00	1.196	1.942	-18404	0.05978	5826.8	
255.10	1.196	1.951	-18409	0.05981	5851.6	
255.20	1.197	1.959	-18415	0.05983	5876.0	
255.30	1.197	1.966	-18420	0.05987	5898.5	
255.40	1.198	1.972	-18424	0.05991	5917.1	
255.50	1.199	1.968	-18421	0.05993	5902.7	
255.60	1.198	1.955	-18417	0.05992	5865.3	
255.70	1.199	1.959	-18420	0.05994	5876.0	
255.80	1.199	1.964	-18424	0.05997	5892.4	
255.90	1.200	1.970	-18427	0.05999	5909.0	
256.00	1.200	1.974	-18430	0.06001	5921.6	
256.10	1.201	1.976	-18432	0.06003	5929.2	
256.20	1.201	1.977	-18434	0.06005	5929.6	
256.30	1.200	1.952	-18414	0.06001	5856.2	
256.40	1.199	1.925	-18402	0.05995	5775.1	
256.50	1.199	1.932	-18408	0.05997	5794.9	
256.60	1.200	1.940	-18413	0.05999	5819.7	
256.70	1.200	1.949	-18419	0.06001	5845.8	
256.80	1.201	1.957	-18424	0.06003	5869.9	
256.90	1.201	1.965	-18430	0.06006	5895.3	
257.00	1.202	1.973	-18435	0.06008	5919.0	
257.10	1.202	1.979	-18439	0.06010	5938.1	
257.20	1.202	1.979	-18435	0.06010	5937.9	
257.30	1.200	1.937	-18410	0.06002	5809.6	
257.40	1.200	1.935	-18412	0.06002	5804.3	
257.50	1.201	1.944	-18418	0.06003	5831.8	
257.60	1.201	1.952	-18424	0.06005	5856.7	
257.70	1.201	1.961	-18430	0.06007	5883.7	
257.80	1.202	1.969	-18435	0.06010	5908.3	
257.90	1.202	1.977	-18440	0.06012	5931.7	
258.00	1.203	1.984	-18445	0.06014	5951.1	
258.10	1.202	1.966	-18429	0.06011	5898.1	
258.20	1.201	1.940	-18418	0.06005	5819.9	
258.30	1.201	1.947	-18424	0.06006	5841.4	
258.40	1.202	1.956	-18429	0.06008	5867.0	
258.50	1.202	1.965	-18436	0.06010	5894.1	
258.60	1.203	1.973	-18441	0.06013	5919.0	
258.70	1.203	1.981	-18447	0.06015	5942.4	
258.80	1.203	1.987	-18451	0.06017	5961.7	
258.90	1.203	1.981	-18446	0.06017	5943.3	
259.00	1.202	1.952	-18433	0.06012	5857.5	
259.10	1.203	1.956	-18438	0.06013	5869.4	
259.20	1.203	1.965	-18444	0.06015	5896.1	
259.30	1.204	1.974	-18450	0.06018	5921.9	
259.40	1.204	1.982	-18455	0.06020	5945.1	
259.50	1.205	1.989	-18459	0.06023	5965.5	
259.60	1.209	1.972	-18436	0.06043	5915.1	
259.70	1.217	1.928	-18409	0.06086	5784.9	
259.80	1.219	1.930	-18412	0.06096	5789.2	
259.90	1.220	1.938	-18417	0.06099	5814.1	
260.00	1.220	1.947	-18423	0.06102	5839.6	
260.10	1.221	1.954	-18428	0.06104	5863.4	
260.20	1.222	1.962	-18434	0.06108	5887.3	
260.30	1.222	1.970	-18439	0.06112	5910.1	
260.40	1.223	1.976	-18445	0.06116	5927.4	
260.50	1.225	1.977	-18447	0.06123	5930.4	
260.60	1.232	1.938	-18422	0.06158	5813.0	
260.70	1.235	1.926	-18419	0.06175	5779.5	
260.80	1.236	1.935	-18425	0.06178	5804.3	
260.90	1.236	1.943	-18430	0.06181	5829.3	
261.00	1.237	1.952	-18435	0.06184	5855.9	
261.10	1.237	1.960	-18441	0.06186	5880.0	
261.20	1.238	1.968	-18446	0.06189	5904.6	
261.30	1.238	1.976	-18450	0.06192	5926.6	
261.40	1.239	1.980	-18450	0.06195	5939.0	
261.50	1.241	1.936	-18419	0.06207	5807.8	
261.60	1.243	1.925	-18416	0.06213	5773.6	
261.70	1.243	1.934	-18422	0.06216	5801.3	
261.80	1.244	1.943	-18428	0.06218	5828.0	
261.90	1.244	1.951	-18434	0.06220	5854.2	
262.00	1.244	1.960	-18440	0.06222	5880.8	
262.10	1.245	1.969	-18445	0.06225	5905.8	
262.20	1.245	1.977	-18450	0.06227	5930.0	
262.30	1.246	1.981	-18450	0.06229	5943.4	
262.40	1.244	1.938	-18420	0.06220	5813.3	
262.50	1.244	1.928	-18419	0.06219	5785.4	
262.60	1.244	1.937	-18425	0.06220	5811.8	
262.70	1.245	1.946	-18430	0.06223	5839.0	
262.80	1.245	1.955	-18436	0.06225	5865.1	
262.90	1.245	1.963	-18442	0.06227	5890.4	
263.00	1.246	1.972	-18447	0.06229	5916.1	
263.10	1.246	1.979	-18452	0.06231	5936.8	
263.20	1.246	1.974	-18442	0.06231	5923.2	
263.30	1.244	1.929	-18415	0.06221	5785.9	
263.40	1.244	1.929	-18418	0.06220	5787.2	
263.50	1.244	1.938	-18424	0.06222	5814.9	
263.60	1.245	1.947	-18429	0.06224	5840.4	
263.70	1.245	1.955	-18435	0.06225	5866.0	
263.80	1.246	1.964	-18441	0.06228	5892.4	
263.90	1.246	1.972	-18446	0.06230	5917.0	
264.00	1.246	1.980	-18452	0.06232	5939.1	
264.10	1.247	1.980	-18450	0.06233	5941.4	
264.20	1.245	1.936	-18421	0.06224	5808.0	
264.30	1.245	1.931	-18421	0.06223	5791.7	
264.40	1.245	1.939	-18427	0.06225	5817.4	
264.50	1.245	1.948	-18433	0.06226	5843.4	
264.60	1.246	1.956	-18438	0.06228	5868.7	
264.70	1.246	1.965	-18444	0.06230	5893.7	
264.80	1.247	1.973	-18449	0.06233	5919.7	
264.90	1.247	1.981	-18454	0.06235	5942.4	
265.00	1.247	1.987	-18457	0.06236	5960.8	
265.10	1.246	1.952	-18428	0.06229	5854.5	
265.20	1.245	1.933	-18422	0.06225	5799.4	
265.30	1.245	1.942	-18428	0.06227	5826.4	
265.40	1.246	1.951	-18434	0.06229	5852.4	
265.50	1.246	1.960	-18440	0.06231	5878.6	
265.60	1.247	1.969	-18445	0.06233	5905.6	
265.70	1.247	1.977	-18451	0.06235	5930.3	
265.80	1.247	1.985	-18456	0.06237	5954.1	
265.90	1.248	1.991	-18460	0.06239	5972.4	
266.00	1.248	1.984	-18456	0.06238	5950.7	
266.10	1.247	1.981	-18457	0.06237	5944.2	
266.20	1.248	1.987	-18461	0.06238	5961.6	
266.30	1.248	1.992	-18462	0.06240	5975.7	
266.40	1.247	1.966	-18439	0.06235	5898.4	
266.50	1.246	1.938	-18427	0.06229	5814.8	
266.60	1.246	1.945	-18432	0.06230	5836.2	
266.70	1.246	1.954	-18438	0.06232	5861.8	
266.80	1.247	1.963	-18443	0.06234	5888.5	
266.90	1.247	1.971	-18449	0.06236	5914.2	
267.00	1.248	1.980	-18455	0.06238	5938.7	
267.10	1.248	1.987	-18460	0.06240	5961.2	
267.20	1.248	1.993	-18464	0.06242	5980.5	
267.30	1.248	1.978	-18447	0.06239	5934.9	
267.40	1.246	1.942	-18429	0.06231	5825.5	
267.50	1.246	1.948	-18434	0.06232	5843.4	
267.60	1.247	1.957	-18440	0.06234	5870.4	
267.70	1.247	1.966	-18446	0.06237	5896.8	
267.80	1.248	1.975	-18452	0.06239	5924.3	
267.90	1.248	1.983	-18457	0.06240	5948.5	
268.00	1.249	1.991	-18462	0.06243	5972.1	
268.10	1.249	1.998	-18467	0.06244	5992.9	
268.20	1.251	1.992	-18461	0.06253	5975.2	
268.30	1.260	1.941	-18434	0.06298	5823.9	
268.40	1.263	1.935	-18434	0.06313	5805.2	
268.50	1.263	1.943	-18439	0.06316	5829.6	
268.60	1.264	1.952	-18445	0.06319	5855.2	
268.70	1.264	1.960	-18451	0.06322	5879.0	
268.80	1.265	1.968	-18456	0.06326	5903.8	
268.90	1.266	1.975	-18462	0.06330	5924.8	
269.00	1.268	1.974	-18459	0.06339	5922.6	
269.10	1.276	1.934	-18436	0.06379	5802.8	
269.20	1.278	1.931	-18438	0.06392	5792.0	
269.30	1.279	1.940	-18444	0.06395	5818.6	
269.40	1.280	1.948	-18449	0.06398	5844.1	
269.50	1.280	1.956	-18455	0.06400	5869.0	
269.60	1.281	1.965	-18460	0.06403	5895.7	
269.70	1.281	1.973	-18465	0.06407	5919.5	
269.80	1.282	1.980	-18467	0.06410	5940.9	
269.90	1.286	1.967	-18447	0.06429	5899.8	
270.00	1.294	1.929	-18427	0.06468	5786.1	
270.10	1.295	1.934	-18433	0.06474	5802.5	
270.20	1.295	1.943	-18439	0.06477	5829.6	
270.30	1.296	1.952	-18446	0.06480	5856.5	
270.40	1.296	1.961	-18452	0.06482	5883.6	
270.50	1.297	1.970	-18457	0.06486	5909.1	
270.60	1.298	1.978	-18464	0.06489	5933.4	
270.70	1.299	1.984	-18478	0.06493	5952.4	
270.80	1.306	1.950	-18786	0.06528	5848.6	
270.90	1.311	1.930	-18931	0.06554	5790.2	
271.00	1.311	1.938	-18947	0.06557	5815.1	
271.10	1.312	1.947	-18964	0.06559	5841.6	
271.20	1.312	1.956	-18982	0.06562	5867.2	
271.30	1.313	1.964	-19003	0.06565	5892.8	
271.40	1.314	1.973	-19032	0.06568	5918.2	
271.50	1.314	1.980	-19074	0.06572	5941.4	
271.60	1.316	1.982	-19453	0.06579	5946.7	
271.70	1.325	1.936	-20828	0.06623	5806.8	
271.80	1.327	1.932	-21023	0.06636	5795.7	
271.90	1.328	1.941	-21040	0.06639	5823.9	
272.00	1.328	1.950	-21063	0.06642	5850.1	
272.10	1.329	1.959	-21086	0.06644	5877.2	
272.20	1.330	1.968	-21112	0.06648	5903.6	
272.30	1.330	1.976	-21146	0.06651	5928.7	
272.40	1.331	1.983	-21208	0.06655	5950.5	
272.50	1.337	1.956	-22117	0.06683	5869.2	
272.60	1.343	1.929	-22647	0.06715	5785.6	
272.70	1.344	1.936	-22665	0.06719	5809.1	
272.80	1.344	1.945	-22685	0.06721	5836.0	
272.90	1.345	1.954	-22701	0.06724	5862.9	
273.00	1.345	1.963	-22715	0.06727	5888.4	
273.10	1.346	1.972	-22729	0.06730	5915.0	
273.20	1.347	1.979	-22741	0.06734	5938.1	
273.30	1.348	1.985	-22749	0.06738	5953.6	
273.40	1.356	1.940	-22759	0.06781	5820.8	
273.50	1.360	1.929	-22778	0.06799	5786.4	
273.60	1.360	1.938	-22791	0.06802	5814.7	
273.70	1.361	1.947	-22803	0.06804	5840.8	
273.80	1.361	1.956	-22814	0.06807	5866.9	
273.90	1.362	1.965	-22826	0.06810	5894.8	
274.00	1.363	1.973	-22837	0.06813	5919.4	
274.10	1.363	1.981	-22849	0.06816	5943.4	
274.20	1.365	1.981	-22847	0.06825	5943.4	
274.30	1.374	1.933	-22815	0.06871	5800.2	
274.40	1.377	1.932	-22817	0.06883	5795.3	
274.50	1.377	1.941	-22824	0.06886	5822.4	
274.60	1.378	1.950	-22831	0.06888	5849.8	
274.70	1.378	1.959	-22838	0.06891	5876.1	
274.80	1.379	1.967	-22845	0.06894	5902.4	
274.90	1.380	1.976	-22852	0.06898	5928.0	
275.00	1.380	1.983	-22858	0.06902	5948.2	
275.10	1.386	1.956	-22843	0.06929	5868.4	
275.20	1.392	1.927	-22835	0.06962	5781.8	
275.30	1.393	1.935	-22841	0.06966	5805.7	
275.40	1.394	1.945	-22848	0.06969	5833.5	
275.50	1.394	1.953	-22855	0.06972	5859.5	
275.60	1.395	1.962	-22862	0.06974	5886.2	
275.70	1.396	1.971	-22869	0.06978	5912.4	
275.80	1.396	1.979	-22876	0.06981	5936.2	
275.90	1.397	1.986	-22883	0.06984	5958.2	
276.00	1.398	1.981	-22888	0.06990	5943.1	
276.10	1.400	1.966	-22886	0.07001	5898.0	
276.20	1.402	1.964	-22887	0.07010	5892.2	
276.30	1.403	1.968	-22891	0.07017	5902.8	
276.40	1.404	1.973	-22897	0.07022	5919.5	
276.50	1.405	1.978	-22903	0.07027	5934.6	
276.60	1.408	1.971	-22896	0.07039	5914.1	
276.70	1.416	1.931	-22873	0.07080	5792.4	
276.80	1.418	1.932	-22877	0.07090	5796.8	
276.90	1.418	1.941	-22883	0.07092	5823.2	
277.00	1.419	1.950	-22889	0.07095	5849.2	
277.10	1.420	1.958	-22895	0.07098	5875.5	
277.20	1.420	1.967	-22901	0.07101	5902.2	
277.30	1.421	1.976	-22907	0.07104	5926.5	
277.40	1.422	1.983	-22912	0.07108	5949.9	
277.50	1.424	1.980	-22905	0.07119	5940.8	
277.60	1.433	1.936	-22879	0.07163	5809.1	
277.70	1.435	1.938	-22882	0.07173	5812.5	
277.80	1.435	1.946	-22888	0.07175	5839.4	
277.90	1.435	1.955	-22895	0.07177	5866.3	
278.00	1.436	1.964	-22901	0.07180	5893.3	
278.10	1.437	1.973	-22907	0.07183	5919.9	
278.20	1.437	1.982	-22913	0.07186	5946.0	
278.30	1.438	1.990	-22919	0.07189	5969.2	
278.40	1.438	1.996	-22923	0.07192	5987.9	
278.50	1.439	1.987	-22916	0.07193	5960.9	
278.60	1.439	1.976	-22913	0.07193	5928.9	
278.70	1.439	1.981	-22918	0.07194	5942.5	
278.80	1.439	1.987	-22923	0.07196	5961.4	
278.90	1.440	1.994	-22928	0.07198	5982.2	
279.00	1.440	2.000	-22933	0.07202	6000.0	
279.10	1.441	2.004	-22937	0.07205	6012.4	
279.20	1.444	1.987	-22919	0.07222	5961.2	
279.30	1.452	1.941	-22893	0.07262	5823.5	
279.40	1.454	1.946	-22897	0.07269	5837.5	
279.50	1.454	1.955	-22903	0.07271	5864.8	
279.60	1.455	1.964	-22909	0.07274	5890.7	
279.70	1.455	1.973	-22915	0.07277	5918.2	
279.80	1.456	1.981	-22921	0.07280	5943.2	
279.90	1.457	1.989	-22926	0.07283	5967.7	
280.00	1.457	1.997	-22932	0.07286	5991.3	
280.10	1.458	2.004	-22937	0.07288	6010.6	
280.20	1.460	1.987	-22918	0.07301	5961.2	
280.30	1.465	1.948	-22898	0.07327	5845.1	
280.40	1.466	1.954	-22904	0.07332	5862.3	
280.50	1.467	1.963	-22909	0.07335	5889.9	
280.60	1.467	1.972	-22915	0.07337	5915.7	
280.70	1.468	1.981	-22921	0.07340	5942.4	
280.80	1.468	1.989	-22927	0.07342	5967.1	
280.90	1.469	1.997	-22932	0.07345	5990.8	
281.00	1.470	2.004	-22937	0.07348	6012.7	
281.10	1.470	2.006	-22935	0.07352	6018.2	
281.20	1.474	1.962	-22906	0.07371	5885.1	
281.30	1.476	1.955	-22905	0.07379	5863.8	
281.40	1.476	1.963	-22911	0.07382	5890.3	
281.50	1.477	1.972	-22917	0.07385	5917.0	
281.60	1.477	1.980	-22922	0.07387	5941.4	
281.70	1.478	1.989	-22928	0.07389	5966.1	
281.80	1.478	1.996	-22933	0.07391	5989.2	
281.90	1.479	2.003	-22937	0.07394	6007.8	
282.00	1.479	1.997	-22932	0.07394	5991.5	
282.10	1.479	1.993	-22931	0.07394	5979.0	
282.20	1.479	1.999	-22935	0.07396	5996.4	
282.30	1.480	2.005	-22940	0.07398	6015.9	
282.40	1.480	2.010	-22944	0.07400	6029.9	
282.50	1.480	2.011	-22944	0.07402	6032.0	
282.60	1.481	2.003	-22937	0.07404	6009.7	
282.70	1.484	1.961	-22909	0.07420	5883.4	
282.80	1.486	1.953	-22908	0.07428	5858.9	
282.90	1.486	1.962	-22914	0.07430	5884.6	
283.00	1.487	1.970	-22920	0.07433	5911.2	
283.10	1.487	1.979	-22926	0.07435	5936.2	
283.20	1.488	1.987	-22932	0.07438	5961.8	
283.30	1.488	1.995	-22937	0.07440	5985.4	
283.40	1.488	2.002	-22942	0.07442	6007.2	
283.50	1.489	2.005	-22941	0.07446	6016.2	
283.60	1.491	1.958	-22910	0.07456	5875.4	
283.70	1.492	1.951	-22910	0.07461	5853.6	
283.80	1.493	1.960	-22916	0.07463	5880.3	
283.90	1.493	1.969	-22922	0.07467	5905.8	
284.00	1.494	1.978	-22928	0.07470	5932.7	
284.10	1.494	1.986	-22934	0.07472	5957.3	
284.20	1.495	1.994	-22939	0.07474	5981.7	
284.30	1.495	2.002	-22945	0.07476	6004.7	
284.40	1.496	2.008	-22948	0.07478	6023.4	
284.50	1.495	1.974	-22921	0.07474	5921.7	
284.60	1.494	1.948	-22911	0.07470	5844.5	
284.70	1.494	1.956	-22917	0.07472	5868.6	
284.80	1.495	1.965	-22923	0.07474	5896.3	
284.90	1.495	1.974	-22929	0.07477	5922.6	
285.00	1.496	1.983	-22935	0.07479	5949.8	
285.10	1.496	1.992	-22941	0.07481	5974.6	
285.20	1.497	1.999	-22946	0.07483	5998.4	
285.30	1.497	2.007	-22951	0.07485	6021.0	
285.40	1.497	1.995	-22938	0.07483	5986.5	
285.50	1.495	1.953	-22917	0.07474	5860.4	
285.60	1.495	1.957	-22921	0.07475	5872.2	
285.70	1.496	1.966	-22927	0.07478	5898.9	
285.80	1.496	1.976	-22933	0.07480	5926.6	
285.90	1.496	1.984	-22939	0.07482	5951.7	
286.00	1.497	1.992	-22945	0.07484	5977.2	
286.10	1.497	2.001	-22951	0.07487	6001.9	
286.20	1.498	2.007	-22956	0.07488	6021.8	
286.30	1.498	2.004	-22951	0.07488	6011.8	
286.40	1.496	1.960	-22927	0.07479	5879.8	
286.50	1.496	1.959	-22930	0.07479	5876.2	
286.60	1.496	1.968	-22935	0.07482	5904.2	
286.70	1.497	1.977	-22941	0.07485	5929.8	
286.80	1.497	1.985	-22947	0.07487	5955.7	
286.90	1.498	1.993	-22953	0.07489	5980.2	
287.00	1.498	2.002	-22959	0.07491	6004.5	
287.10	1.499	2.008	-22965	0.07493	6025.4	
287.20	1.500	2.005	-22968	0.07500	6015.4	
287.30	1.502	1.997	-22964	0.07511	5992.4	
287.40	1.503	1.999	-22966	0.07515	5996.2	
287.50	1.504	2.002	-22967	0.07519	6007.0	
287.60	1.505	2.005	-22967	0.07523	6014.5	
287.70	1.506	2.004	-22966	0.07528	6012.6	
287.80	1.507	2.002	-22965	0.07534	6006.2	
287.90	1.508	2.001	-22967	0.07540	6002.0	
288.00	1.509	2.002	-22969	0.07544	6006.0	
288.10	1.510	2.004	-22971	0.07548	6013.2	
288.20	1.511	2.006	-22972	0.07553	6017.6	
288.30	1.512	2.006	-22973	0.07558	6017.4	
288.40	1.512	1.998	-22968	0.07560	5994.7	
288.50	1.511	1.969	-22952	0.07555	5905.9	
288.60	1.511	1.967	-22953	0.07555	5900.9	
288.70	1.511	1.974	-22959	0.07557	5922.8	
288.80	1.512	1.982	-22965	0.07559	5947.3	
288.90	1.512	1.990	-22970	0.07562	5970.8	
289.00	1.513	1.998	-22976	0.07564	5994.6	
289.10	1.513	2.006	-22982	0.07566	6017.2	
289.20	1.514	2.012	-22986	0.07568	6036.2	
289.30	1.514	2.011	-22988	0.07569	6033.6	
289.40	1.514	2.007	-22990	0.07571	6022.1	
289.50	1.516	2.008	-22987	0.07578	6022.6	
289.60	1.520	1.990	-22978	0.07601	5970.4	
289.70	1.522	1.989	-22982	0.07611	5965.7	
289.80	1.523	1.995	-22988	0.07615	5984.7	
289.90	1.524	2.001	-22993	0.07620	6002.8	
290.00	1.525	2.006	-22991	0.07625	6017.2	
290.10	1.527	2.006	-22962	0.07634	6017.7	
290.20	1.531	1.992	-22916	0.07654	5975.0	
290.30	1.535	1.978	-22917	0.07674	5935.0	
290.40	1.536	1.980	-22926	0.07681	5941.0	
290.50	1.537	1.987	-22934	0.07686	5960.5	
290.60	1.538	1.994	-22941	0.07689	5982.3	
290.70	1.539	2.001	-22947	0.07694	6004.0	
290.80	1.540	2.008	-22953	0.07698	6025.2	
290.90	1.541	2.014	-22962	0.07703	6041.7	
291.00	1.542	2.015	-22968	0.07710	6046.3	
291.10	1.551	1.970	-22943	0.07753	5909.7	
291.20	1.555	1.957	-22942	0.07774	5869.9	
291.30	1.556	1.965	-22948	0.07778	5896.3	
291.40	1.556	1.974	-22954	0.07781	5921.9	
291.50	1.557	1.982	-22961	0.07784	5946.6	
291.60	1.557	1.991	-22967	0.07786	5972.5	
291.70	1.558	1.999	-22973	0.07789	5996.1	
291.80	1.559	2.006	-22979	0.07793	6018.4	
291.90	1.560	2.009	-22977	0.07799	6027.0	
292.00	1.569	1.959	-22943	0.07846	5877.5	
292.10	1.573	1.952	-22942	0.07863	5855.4	
292.20	1.573	1.961	-22948	0.07865	5882.6	
292.30	1.574	1.970	-22955	0.07868	5909.1	
292.40	1.574	1.978	-22961	0.07871	5935.5	
292.50	1.575	1.987	-22967	0.07874	5961.7	
292.60	1.575	1.996	-22973	0.07877	5987.0	
292.70	1.576	2.003	-22978	0.07880	6010.5	
292.80	1.577	2.010	-22982	0.07884	6030.8	
292.90	1.583	1.978	-22954	0.07917	5933.7	
293.00	1.589	1.956	-22945	0.07943	5869.4	
293.10	1.589	1.965	-22951	0.07947	5895.7	
293.20	1.590	1.974	-22957	0.07950	5921.7	
293.30	1.590	1.982	-22963	0.07952	5947.2	
293.40	1.591	1.991	-22969	0.07955	5973.6	
293.50	1.592	2.000	-22975	0.07959	5999.1	
293.60	1.592	2.008	-22980	0.07961	6023.3	
293.70	1.593	2.015	-22986	0.07964	6043.6	
293.80	1.595	2.013	-22979	0.07973	6037.6	
293.90	1.604	1.964	-22948	0.08019	5892.0	
294.00	1.606	1.963	-22949	0.08031	5887.9	
294.10	1.607	1.972	-22956	0.08034	5916.1	
294.20	1.607	1.980	-22961	0.08037	5941.3	
294.30	1.608	1.989	-22968	0.08039	5967.5	
294.40	1.608	1.998	-22974	0.08042	5993.5	
294.50	1.609	2.006	-22979	0.08045	6017.5	
294.60	1.610	2.014	-22985	0.08048	6040.9	
294.70	1.610	2.019	-22988	0.08052	6057.3	
294.80	1.617	1.980	-22957	0.08084	5940.0	
294.90	1.621	1.963	-22951	0.08104	5889.6	
295.00	1.622	1.972	-22957	0.08108	5915.4	
295.10	1.622	1.981	-22963	0.08111	5942.4	
295.20	1.623	1.989	-22969	0.08113	5968.3	
295.30	1.623	1.998	-22975	0.08115	5993.2	
295.40	1.624	2.006	-22981	0.08118	6019.3	
295.50	1.624	2.014	-22986	0.08120	6041.5	
295.60	1.625	2.021	-22991	0.08123	6062.0	
295.70	1.626	1.992	-22965	0.08132	5974.9	
295.80	1.628	1.963	-22953	0.08142	5890.2	
295.90	1.629	1.972	-22959	0.08145	5915.2	
296.00	1.630	1.980	-22965	0.08148	5940.4	
296.10	1.630	1.989	-22970	0.08150	5966.8	
296.20	1.630	1.997	-22976	0.08152	5992.0	
296.30	1.631	2.005	-22982	0.08155	6016.1	
296.40	1.631	2.013	-22988	0.08157	6040.2	
296.50	1.632	2.019	-22992	0.08159	6058.1	
296.60	1.632	2.008	-22988	0.08158	6025.5	
296.70	1.632	2.006	-22990	0.08158	6018.3	
296.80	1.632	2.012	-22994	0.08160	6034.9	
296.90	1.632	2.017	-22996	0.08161	6049.9	
297.00	1.632	2.016	-22994	0.08161	6047.6	
297.10	1.631	1.984	-22967	0.08155	5952.6	
297.20	1.630	1.964	-22959	0.08151	5892.0	
297.30	1.631	1.972	-22964	0.08154	5914.9	
297.40	1.631	1.980	-22970	0.08155	5941.1	
297.50	1.632	1.989	-22976	0.08158	5966.3	
297.60	1.632	1.997	-22982	0.08160	5991.1	
297.70	1.632	2.005	-22987	0.08161	6015.9	
297.80	1.633	2.013	-22993	0.08163	6038.4	
297.90	1.633	2.019	-22996	0.08165	6056.3	
298.00	1.631	1.983	-22966	0.08157	5950.1	
298.10	1.630	1.960	-22957	0.08152	5881.4	
298.20	1.631	1.969	-22963	0.08154	5907.1	
298.30	1.631	1.977	-22969	0.08156	5932.3	
298.40	1.632	1.986	-22975	0.08158	5958.9	
298.50	1.632	1.995	-22981	0.08160	5984.3	
298.60	1.633	2.003	-22987	0.08163	6009.9	
298.70	1.633	2.011	-22992	0.08164	6033.6	
298.80	1.633	2.018	-22997	0.08166	6052.9	
298.90	1.632	1.996	-22976	0.08161	5988.4	
299.00	1.630	1.961	-22960	0.08152	5883.3	
299.10	1.631	1.968	-22965	0.08155	5903.7	
299.20	1.631	1.977	-22971	0.08157	5930.6	
299.30	1.632	1.985	-22977	0.08159	5956.1	
299.40	1.632	1.994	-22983	0.08161	5982.9	
299.50	1.633	2.003	-22989	0.08163	6007.9	
299.60	1.633	2.011	-22995	0.08165	6032.3	
299.70	1.633	2.018	-23001	0.08166	6054.8	
299.80	1.634	2.023	-23005	0.08168	6069.8	
299.90	1.633	1.992	-22989	0.08163	5974.5	
300.00	1.632	1.969	-22982	0.08159	5907.0	
300.10	1.632	1.976	-22988	0.08160	5929.3	
300.20	1.632	1.985	-22994	0.08162	5954.8	
300.30	1.633	1.993	-23000	0.08164	5979.1	
300.40	1.633	2.001	-23006	0.08166	6004.4	
300.50	1.634	2.010	-23013	0.08168	6029.0	
300.60	1.634	2.017	-23020	0.08170	6050.7	
300.70	1.635	2.022	-23057	0.08173	6067.3	
300.80	1.638	2.006	-23317	0.08189	6018.5	
300.90	1.640	1.997	-23525	0.08202	5989.6	
301.00	1.642	1.998	-23661	0.08210	5993.8	
301.10	1.643	2.001	-23775	0.08217	6002.4	
301.20	1.645	2.004	-23900	0.08223	6013.2	
301.30	1.646	2.004	-24140	0.08231	6013.3	
301.40	1.652	1.980	-25052	0.08259	5939.9	
301.50	1.656	1.967	-25440	0.08280	5902.0	
301.60	1.657	1.974	-25479	0.08285	5922.7	
301.70	1.658	1.982	-25509	0.08288	5947.5	
301.80	1.658	1.990	-25535	0.08291	5971.4	
301.90	1.659	1.999	-25563	0.08294	5995.7	
302.00	1.660	2.006	-25595	0.08298	6019.5	
302.10	1.660	2.013	-25637	0.08301	6039.8	
302.20	1.662	2.015	-25929	0.08309	6043.6	
302.30	1.671	1.968	-27100	0.08354	5902.5	
302.40	1.674	1.962	-27290	0.08369	5887.1	
302.50	1.674	1.972	-27309	0.08372	5915.1	
302.60	1.675	1.980	-27331	0.08375	5940.0	
302.70	1.676	1.989	-27349	0.08378	5966.1	
302.80	1.676	1.997	-27367	0.08380	5991.2	
302.90	1.677	2.005	-27385	0.08384	6015.5	
303.00	1.677	2.013	-27403	0.08387	6039.6	
303.10	1.678	2.018	-27429	0.08392	6053.6	
303.20	1.687	1.973	-27572	0.08435	5919.4	
303.30	1.691	1.961	-27626	0.08454	5884.5	
303.40	1.692	1.971	-27643	0.08458	5911.9	
303.50	1.692	1.980	-27658	0.08461	5938.5	
303.60	1.693	1.988	-27673	0.08464	5963.4	
303.70	1.693	1.996	-27687	0.08466	5989.1	
303.80	1.694	2.005	-27702	0.08469	6014.5	
303.90	1.694	2.013	-27718	0.08472	6037.6	
304.00	1.695	2.019	-27730	0.08477	6055.7	
304.10	1.703	1.977	-27683	0.08516	5929.6	
304.20	1.708	1.961	-27673	0.08539	5881.8	
304.30	1.709	1.970	-27680	0.08543	5908.5	
304.40	1.709	1.978	-27687	0.08545	5934.0	
304.50	1.710	1.987	-27695	0.08548	5961.0	
304.60	1.710	1.995	-27703	0.08551	5985.9	
304.70	1.711	2.004	-27711	0.08554	6011.3	
304.80	1.711	2.012	-27718	0.08557	6035.2	
304.90	1.712	2.018	-27724	0.08561	6053.8	
305.00	1.720	1.979	-27705	0.08599	5938.4	
305.10	1.725	1.958	-27703	0.08625	5873.7	
305.20	1.726	1.967	-27710	0.08629	5900.7	
305.30	1.726	1.976	-27716	0.08632	5927.4	
305.40	1.727	1.985	-27723	0.08635	5953.6	
305.50	1.728	1.993	-27730	0.08638	5980.0	
305.60	1.728	2.001	-27736	0.08641	6004.3	
305.70	1.729	2.009	-27743	0.08644	6028.0	
305.80	1.730	2.015	-27748	0.08648	6046.4	
305.90	1.737	1.975	-27726	0.08687	5924.4	
306.00	1.742	1.960	-27725	0.08710	5878.8	
306.10	1.743	1.968	-27731	0.08713	5905.5	
306.20	1.743	1.977	-27738	0.08716	5931.9	
306.30	1.744	1.986	-27744	0.08719	5958.8	
306.40	1.744	1.995	-27750	0.08721	5983.8	
306.50	1.745	2.004	-27757	0.08725	6010.6	
306.60	1.746	2.012	-27763	0.08728	6034.5	
306.70	1.746	2.019	-27769	0.08731	6055.9	
306.80	1.747	2.018	-27775	0.08736	6055.3	
306.90	1.750	2.004	-27770	0.08748	6011.2	
307.00	1.755	1.981	-27757	0.08774	5942.2	
307.10	1.757	1.980	-27759	0.08784	5939.8	
307.20	1.758	1.987	-27765	0.08788	5962.1	
307.30	1.758	1.996	-27771	0.08791	5986.6	
307.40	1.759	2.003	-27777	0.08795	6010.2	
307.50	1.760	2.011	-27783	0.08798	6034.0	
307.60	1.760	2.018	-27789	0.08802	6054.1	
307.70	1.763	2.009	-27779	0.08816	6025.8	
307.80	1.772	1.963	-27754	0.08861	5889.6	
307.90	1.774	1.966	-27758	0.08870	5897.3	
308.00	1.775	1.975	-27764	0.08873	5925.3	
308.10	1.775	1.984	-27770	0.08877	5951.2	
308.20	1.776	1.992	-27776	0.08879	5977.1	
308.30	1.776	2.001	-27782	0.08882	6002.5	
308.40	1.777	2.009	-27787	0.08885	6026.4	
308.50	1.777	2.016	-27794	0.08887	6049.5	
308.60	1.778	2.023	-27799	0.08891	6070.1	
308.70	1.780	2.024	-27796	0.08898	6072.2	
308.80	1.789	1.976	-27765	0.08944	5928.4	
308.90	1.792	1.971	-27765	0.08958	5914.3	
309.00	1.792	1.980	-27771	0.08960	5941.3	
309.10	1.793	1.989	-27777	0.08963	5965.8	
309.20	1.793	1.997	-27783	0.08966	5992.0	
309.30	1.794	2.006	-27789	0.08969	6018.0	
309.40	1.794	2.014	-27795	0.08972	6042.1	
309.50	1.795	2.022	-27800	0.08975	6065.8	
309.60	1.796	2.029	-27805	0.08978	6086.0	
309.70	1.798	2.026	-27798	0.08988	6077.7	
309.80	1.806	1.979	-27768	0.09030	5935.7	
309.90	1.808	1.977	-27770	0.09040	5930.2	
310.00	1.808	1.986	-27776	0.09042	5957.5	
310.10	1.809	1.994	-27782	0.09045	5983.3	
310.20	1.810	2.003	-27788	0.09048	6009.3	
310.30	1.810	2.012	-27794	0.09050	6035.4	
310.40	1.811	2.020	-27799	0.09053	6058.6	
310.50	1.811	2.027	-27805	0.09056	6081.8	
310.60	1.812	2.033	-27808	0.09059	6099.3	
310.70	1.816	2.001	-27779	0.09079	6002.4	
310.80	1.819	1.974	-27767	0.09097	5921.8	
310.90	1.820	1.982	-27773	0.09100	5944.6	
311.00	1.821	1.990	-27779	0.09103	5970.9	
311.10	1.821	1.999	-27785	0.09106	5997.6	
311.20	1.822	2.007	-27790	0.09109	6022.1	
311.30	1.822	2.016	-27796	0.09110	6047.3	
311.40	1.823	2.023	-27801	0.09113	6069.6	
311.50	1.823	2.030	-27805	0.09117	6091.1	
311.60	1.826	2.015	-27786	0.09128	6043.6	
311.70	1.829	1.974	-27765	0.09147	5923.1	
311.80	1.830	1.980	-27770	0.09151	5939.0	
311.90	1.831	1.988	-27776	0.09153	5964.3	
312.00	1.831	1.997	-27781	0.09157	5990.3	
312.10	1.832	2.006	-27787	0.09160	6016.5	
312.20	1.832	2.013	-27792	0.09162	6040.2	
312.30	1.833	2.021	-27797	0.09165	6063.9	
312.40	1.834	2.028	-27802	0.09168	6084.9	
312.50	1.834	2.033	-27802	0.09172	6099.2	
312.60	1.839	1.990	-27768	0.09193	5969.9	
312.70	1.841	1.975	-27763	0.09204	5925.2	
312.80	1.841	1.984	-27769	0.09207	5952.0	
312.90	1.842	1.993	-27775	0.09210	5977.6	
313.00	1.843	2.001	-27781	0.09213	6003.1	
313.10	1.843	2.010	-27786	0.09214	6028.5	
313.20	1.843	2.017	-27791	0.09217	6052.4	
313.30	1.844	2.025	-27797	0.09220	6075.8	
313.40	1.845	2.032	-27801	0.09223	6095.8	
313.50	1.846	2.016	-27781	0.09232	6048.3	
313.60	1.850	1.977	-27759	0.09250	5929.8	
313.70	1.851	1.981	-27764	0.09254	5943.8	
313.80	1.851	1.990	-27769	0.09257	5969.5	
313.90	1.852	1.998	-27775	0.09259	5995.1	
314.00	1.852	2.007	-27780	0.09261	6019.7	
314.10	1.853	2.015	-27786	0.09263	6044.7	
314.20	1.853	2.023	-27791	0.09266	6067.8	
314.30	1.854	2.030	-27796	0.09269	6089.2	
314.40	1.854	2.031	-27789	0.09272	6092.0	
314.50	1.855	1.985	-27752	0.09277	5955.9	
314.60	1.856	1.980	-27752	0.09280	5940.4	
314.70	1.856	1.989	-27758	0.09282	5965.8	
314.80	1.857	1.997	-27763	0.09285	5991.1	
314.90	1.858	2.006	-27769	0.09288	6016.7	
315.00	1.858	2.014	-27775	0.09290	6041.0	
315.10	1.858	2.022	-27782	0.09291	6064.9	
315.20	1.859	2.029	-27788	0.09294	6086.3	
315.30	1.859	2.032	-27800	0.09297	6095.0	
315.40	1.861	2.021	-27883	0.09306	6062.2	
315.50	1.863	2.018	-27951	0.09313	6053.1	
315.60	1.863	2.021	-27992	0.09316	6064.4	
315.70	1.864	2.024	-28039	0.09319	6072.0	
315.80	1.865	2.023	-28095	0.09323	6070.2	
315.90	1.864	1.994	-28108	0.09319	5982.2	
316.00	1.863	1.963	-28100	0.09313	5890.4	
316.10	1.863	1.970	-28108	0.09315	5911.0	
316.20	1.863	1.978	-28115	0.09317	5935.3	
316.30	1.864	1.987	-28124	0.09319	5960.6	
316.40	1.864	1.996	-28132	0.09321	5986.6	
316.50	1.865	2.003	-28140	0.09323	6010.3	
316.60	1.865	2.012	-28149	0.09326	6035.1	
316.70	1.865	2.019	-28158	0.09327	6056.5	
316.80	1.866	2.025	-28167	0.09328	6073.5	
316.90	1.866	2.026	-28173	0.09329	6078.7	
317.00	1.865	1.997	-28153	0.09324	5992.0	
317.10	1.864	1.977	-28146	0.09320	5931.3	
317.20	1.864	1.984	-28152	0.09322	5951.2	
317.30	1.865	1.991	-28158	0.09323	5974.4	
317.40	1.865	2.000	-28165	0.09325	5999.5	
317.50	1.865	2.008	-28172	0.09327	6023.4	
317.60	1.866	2.016	-28179	0.09329	6047.2	
317.70	1.866	2.023	-28187	0.09331	6068.8	
317.80	1.867	2.029	-28194	0.09333	6087.3	
317.90	1.867	2.034	-28200	0.09334	6101.8	
318.00	1.866	2.007	-28179	0.09330	6020.9	
318.10	1.864	1.975	-28165	0.09322	5924.5	
318.20	1.865	1.982	-28171	0.09323	5945.2	
318.30	1.865	1.990	-28177	0.09325	5970.3	
318.40	1.866	1.999	-28184	0.09328	5996.7	
318.50	1.866	2.007	-28190	0.09330	6021.8	
318.60	1.866	2.015	-28197	0.09331	6045.4	
318.70	1.867	2.023	-28204	0.09333	6068.2	
318.80	1.867	2.030	-28210	0.09335	6089.0	
318.90	1.867	2.036	-28217	0.09337	6107.7	
319.00	1.867	2.026	-28206	0.09335	6079.1	
319.10	1.865	1.981	-28181	0.09326	5941.6	
319.20	1.865	1.982	-28185	0.09326	5947.3	
319.30	1.866	1.991	-28191	0.09328	5972.8	
319.40	1.866	1.999	-28198	0.09330	5998.5	
319.50	1.866	2.008	-28204	0.09332	6023.5	
319.60	1.867	2.016	-28211	0.09334	6048.1	
319.70	1.867	2.024	-28217	0.09336	6072.0	
319.80	1.867	2.031	-28224	0.09337	6093.7	
319.90	1.868	2.037	-28228	0.09339	6111.6	
320.00	1.866	2.002	-28201	0.09331	6005.5	
320.10	1.865	1.986	-28197	0.09327	5956.6	
320.20	1.866	1.994	-28203	0.09329	5982.0	
320.30	1.866	2.002	-28209	0.09331	6007.4	
320.40	1.867	2.011	-28216	0.09333	6034.2	
320.50	1.867	2.020	-28222	0.09335	6058.6	
320.60	1.868	2.028	-28229	0.09338	6084.1	
320.70	1.868	2.036	-28235	0.09340	6108.0	
320.80	1.868	2.042	-28241	0.09342	6127.2	
320.90	1.868	2.035	-28236	0.09340	6104.5	
321.00	1.867	2.010	-28224	0.09335	6030.9	
321.10	1.867	2.010	-28226	0.09335	6030.8	
321.20	1.867	2.015	-28230	0.09336	6044.5	
321.30	1.868	2.019	-28233	0.09338	6056.0	
321.40	1.867	2.018	-28232	0.09337	6055.3	
321.50	1.866	1.985	-28209	0.09331	5955.7	
321.60	1.866	1.975	-28206	0.09329	5923.7	
321.70	1.866	1.983	-28211	0.09330	5947.5	
321.80	1.866	1.990	-28217	0.09332	5970.8	
321.90	1.867	1.999	-28223	0.09334	5996.4	
322.00	1.867	2.007	-28229	0.09336	6021.3	
322.10	1.868	2.015	-28235	0.09338	6044.8	
322.20	1.868	2.023	-28242	0.09340	6068.7	
322.30	1.868	2.030	-28247	0.09341	6088.5	
322.40	1.869	2.034	-28251	0.09343	6103.3	
322.50	1.867	2.004	-28226	0.09337	6011.0	
322.60	1.866	1.976	-28215	0.09330	5928.0	
322.70	1.866	1.983	-28221	0.09332	5950.4	
322.80	1.867	1.991	-28226	0.09334	5974.4	
322.90	1.867	2.000	-28233	0.09336	5999.9	
323.00	1.868	2.009	-28239	0.09338	6025.5	
323.10	1.868	2.017	-28244	0.09340	6049.7	
323.20	1.868	2.025	-28251	0.09341	6074.2	
323.30	1.869	2.032	-28257	0.09343	6095.7	
323.40	1.869	2.038	-28263	0.09345	6113.7	
323.50	1.868	2.016	-28244	0.09341	6048.9	
323.60	1.867	1.980	-28227	0.09333	5940.4	
323.70	1.867	1.986	-28233	0.09333	5958.1	
323.80	1.867	1.994	-28238	0.09336	5982.5	
323.90	1.867	2.002	-28244	0.09337	6007.4	
324.00	1.868	2.011	-28250	0.09340	6032.6	
324.10	1.868	2.019	-28256	0.09342	6056.2	
324.20	1.869	2.026	-28263	0.09344	6079.1	
324.30	1.869	2.033	-28268	0.09346	6099.9	
324.40	1.870	2.039	-28274	0.09348	6116.7	
324.50	1.868	2.006	-28252	0.09341	6018.9	
324.60	1.867	1.981	-28243	0.09335	5943.1	
324.70	1.867	1.989	-28249	0.09337	5967.0	
324.80	1.868	1.997	-28255	0.09339	5991.9	
324.90	1.868	2.006	-28261	0.09340	6016.8	
325.00	1.868	2.014	-28268	0.09342	6042.7	
325.10	1.869	2.022	-28274	0.09344	6066.6	
325.20	1.869	2.030	-28280	0.09346	6090.7	
325.30	1.870	2.037	-28287	0.09348	6112.3	
325.40	1.870	2.042	-28297	0.09350	6126.0	
325.50	1.869	2.009	-28278	0.09346	6026.8	
325.60	1.868	1.990	-28273	0.09342	5968.7	
325.70	1.869	1.998	-28279	0.09343	5994.0	
325.80	1.869	2.007	-28286	0.09345	6019.6	
325.90	1.869	2.015	-28292	0.09347	6044.8	
326.00	1.870	2.024	-28299	0.09349	6070.7	
326.10	1.870	2.031	-28305	0.09351	6094.4	
326.20	1.871	2.039	-28313	0.09353	6118.2	
326.30	1.871	2.046	-28323	0.09355	6136.5	
326.40	1.872	2.044	-28373	0.09360	6133.3	
326.50	1.877	2.023	-28528	0.09383	6070.4	
326.60	1.879	2.017	-28574	0.09397	6050.4	
326.70	1.880	2.023	-28578	0.09401	6068.4	
326.80	1.881	2.029	-28577	0.09405	6086.6	
326.90	1.882	2.034	-28576	0.09410	6101.8	
327.00	1.884	2.036	-28565	0.09418	6106.9	
327.10	1.892	1.994	-28503	0.09462	5981.0	
327.20	1.897	1.982	-28502	0.09483	5945.8	
327.30	1.897	1.991	-28513	0.09486	5971.6	
327.40	1.898	1.999	-28522	0.09489	5996.1	
327.50	1.898	2.008	-28532	0.09492	6023.2	
327.60	1.899	2.016	-28542	0.09495	6047.2	
327.70	1.900	2.024	-28553	0.09498	6071.4	
327.80	1.900	2.032	-28566	0.09501	6094.8	
327.90	1.901	2.038	-28584	0.09506	6114.2	
328.00	1.903	2.041	-28611	0.09513	6123.0	
328.10	1.911	1.997	-28602	0.09557	5991.4	
328.20	1.916	1.986	-28604	0.09578	5957.4	
328.30	1.916	1.995	-28612	0.09581	5983.8	
328.40	1.917	2.003	-28620	0.09584	6008.1	
328.50	1.917	2.011	-28628	0.09587	6034.2	
328.60	1.918	2.020	-28636	0.09590	6058.6	
328.70	1.919	2.027	-28644	0.09593	6082.0	
328.80	1.920	2.035	-28653	0.09598	6105.4	
328.90	1.920	2.041	-28661	0.09602	6124.3	
329.00	1.925	2.024	-28650	0.09625	6071.0	
329.10	1.934	1.984	-28637	0.09669	5950.9	
329.20	1.935	1.989	-28643	0.09675	5965.7	
329.30	1.936	1.997	-28650	0.09678	5991.4	
329.40	1.936	2.005	-28657	0.09681	6016.1	
329.50	1.937	2.014	-28664	0.09683	6041.0	
329.60	1.937	2.022	-28671	0.09686	6064.9	
329.70	1.938	2.029	-28678	0.09689	6087.9	
329.80	1.939	2.037	-28686	0.09693	6110.4	
329.90	1.940	2.042	-28691	0.09698	6125.8	
330.00	1.948	2.000	-28664	0.09742	5999.2	
330.10	1.953	1.983	-28660	0.09767	5948.6	
330.20	1.954	1.991	-28667	0.09770	5974.1	
330.30	1.955	2.000	-28673	0.09773	6000.4	
330.40	1.955	2.009	-28680	0.09776	6025.9	
330.50	1.956	2.017	-28687	0.09780	6051.1	
330.60	1.957	2.025	-28694	0.09783	6076.0	
330.70	1.957	2.033	-28701	0.09787	6098.6	
330.80	1.958	2.039	-28708	0.09792	6118.5	
330.90	1.966	2.004	-28681	0.09829	6012.7	
331.00	1.972	1.981	-28673	0.09860	5942.0	
331.10	1.973	1.989	-28679	0.09863	5967.5	
331.20	1.973	1.998	-28685	0.09866	5992.6	
331.30	1.974	2.007	-28692	0.09870	6019.7	
331.40	1.975	2.015	-28699	0.09873	6044.6	
331.50	1.975	2.023	-28706	0.09875	6068.7	
331.60	1.976	2.031	-28713	0.09879	6092.0	
331.70	1.977	2.037	-28720	0.09883	6110.6	
331.80	1.982	2.015	-28711	0.09909	6045.6	
331.90	1.990	1.982	-28699	0.09948	5947.0	
332.00	1.991	1.989	-28706	0.09953	5965.5	
332.10	1.991	1.997	-28712	0.09956	5991.4	
332.20	1.992	2.006	-28719	0.09959	6016.6	
332.30	1.992	2.014	-28727	0.09962	6042.4	
332.40	1.993	2.022	-28735	0.09965	6066.4	
332.50	1.994	2.030	-28743	0.09968	6088.6	
332.60	1.995	2.035	-28759	0.09974	6106.2	
332.70	1.998	2.025	-28803	0.09990	6075.6	
332.80	2.000	2.021	-28831	0.1000	6063.9	
332.90	2.002	2.024	-28850	0.1001	6073.0	
333.00	2.003	2.025	-28860	0.1002	6075.3	
333.10	2.006	2.019	-28849	0.1003	6057.2	
333.20	2.009	2.016	-28846	0.1004	6048.5	
333.30	2.010	2.019	-28856	0.1005	6058.1	
333.40	2.012	2.023	-28871	0.1006	6068.9	
333.50	2.014	2.022	-28883	0.1007	6066.4	
333.60	2.021	1.985	-28864	0.1011	5955.7	
333.70	2.025	1.974	-28862	0.1013	5921.6	
333.80	2.026	1.982	-28868	0.1013	5945.5	
333.90	2.027	1.990	-28875	0.1013	5970.1	
334.00	2.027	1.998	-28883	0.1014	5994.5	
334.10	2.028	2.007	-28891	0.1014	6019.7	
334.20	2.029	2.014	-28899	0.1014	6042.7	
334.30	2.029	2.022	-28907	0.1015	6064.6	
334.40	2.030	2.028	-28917	0.1015	6083.7	
334.50	2.034	2.018	-28909	0.1017	6052.7	
334.60	2.042	1.976	-28888	0.1021	5926.8	
334.70	2.044	1.978	-28892	0.1022	5933.7	
334.80	2.045	1.986	-28899	0.1022	5959.1	
334.90	2.045	1.995	-28905	0.1023	5984.4	
335.00	2.046	2.003	-28912	0.1023	6009.3	
335.10	2.046	2.011	-28920	0.1023	6034.4	
335.20	2.047	2.019	-28928	0.1023	6057.1	
335.30	2.048	2.026	-28936	0.1024	6078.9	
335.40	2.049	2.031	-28942	0.1024	6093.3	
335.50	2.057	1.989	-28918	0.1029	5967.4	
335.60	2.062	1.975	-28916	0.1031	5925.7	
335.70	2.062	1.984	-28922	0.1031	5950.7	
335.80	2.063	1.992	-28929	0.1031	5975.5	
335.90	2.063	2.000	-28936	0.1032	6000.8	
336.00	2.064	2.009	-28942	0.1032	6025.9	
336.10	2.065	2.017	-28949	0.1032	6049.8	
336.20	2.066	2.024	-28957	0.1033	6071.9	
336.30	2.067	2.030	-28963	0.1033	6088.5	
336.40	2.074	1.992	-28942	0.1037	5977.4	
336.50	2.079	1.976	-28939	0.1039	5926.6	
336.60	2.079	1.984	-28945	0.1040	5951.1	
336.70	2.080	1.992	-28952	0.1040	5976.1	
336.80	2.081	2.000	-28959	0.1040	6001.1	
336.90	2.082	2.009	-28966	0.1041	6027.1	
337.00	2.082	2.017	-28973	0.1041	6050.6	
337.10	2.083	2.025	-28980	0.1041	6073.9	
337.20	2.084	2.031	-28987	0.1042	6093.0	
337.30	2.089	2.009	-28961	0.1044	6025.7	
337.40	2.096	1.977	-28944	0.1048	5930.6	
337.50	2.097	1.983	-28951	0.1049	5949.1	
337.60	2.098	1.992	-28959	0.1049	5974.5	
337.70	2.098	2.000	-28967	0.1049	6000.3	
337.80	2.099	2.008	-28976	0.1049	6025.3	
337.90	2.100	2.017	-28987	0.1050	6050.8	
338.00	2.100	2.025	-28999	0.1050	6073.8	
338.10	2.101	2.032	-29015	0.1051	6095.9	
338.20	2.103	2.034	-29083	0.1051	6102.6	
338.30	2.111	1.989	-29364	0.1056	5966.8	
338.40	2.115	1.982	-29433	0.1057	5946.8	
338.50	2.115	1.991	-29450	0.1058	5972.0	
338.60	2.116	1.999	-29468	0.1058	5997.0	
338.70	2.117	2.008	-29487	0.1058	6023.1	
338.80	2.117	2.016	-29508	0.1059	6046.9	
338.90	2.118	2.024	-29533	0.1059	6071.0	
339.00	2.119	2.031	-29568	0.1059	6092.6	
339.10	2.120	2.037	-29623	0.1060	6111.3	
339.20	2.122	2.032	-30124	0.1061	6096.2	
339.30	2.131	1.988	-31223	0.1065	5962.6	
339.40	2.133	1.987	-31352	0.1067	5961.1	
339.50	2.134	1.995	-31378	0.1067	5986.3	
339.60	2.134	2.004	-31404	0.1067	6010.5	
339.70	2.135	2.012	-31429	0.1067	6036.1	
339.80	2.136	2.020	-31457	0.1068	6059.5	
339.90	2.136	2.028	-31491	0.1068	6082.5	
340.00	2.137	2.034	-31538	0.1068	6103.2	
340.10	2.138	2.039	-31676	0.1069	6117.8	
340.20	2.145	2.002	-32997	0.1073	6007.1	
340.30	2.150	1.984	-33473	0.1075	5951.8	
340.40	2.151	1.992	-33499	0.1075	5976.5	
340.50	2.151	2.000	-33528	0.1076	6000.9	
340.60	2.152	2.009	-33552	0.1076	6026.1	
340.70	2.153	2.017	-33574	0.1076	6051.5	
340.80	2.153	2.025	-33598	0.1077	6075.0	
340.90	2.154	2.033	-33624	0.1077	6097.6	
341.00	2.155	2.038	-33662	0.1078	6115.2	
341.10	2.161	2.007	-33983	0.1081	6021.6	
341.20	2.167	1.982	-34168	0.1084	5945.7	
341.30	2.168	1.989	-34190	0.1084	5967.9	
341.40	2.169	1.998	-34210	0.1084	5993.3	
341.50	2.169	2.006	-34228	0.1085	6018.3	
341.60	2.170	2.014	-34246	0.1085	6042.4	
341.70	2.170	2.022	-34264	0.1085	6066.3	
341.80	2.171	2.029	-34284	0.1086	6087.7	
341.90	2.172	2.035	-34300	0.1086	6103.9	
342.00	2.180	1.996	-34242	0.1090	5989.1	
342.10	2.184	1.982	-34230	0.1092	5946.5	
342.20	2.185	1.991	-34239	0.1092	5972.4	
342.30	2.185	1.999	-34248	0.1093	5997.1	
342.40	2.186	2.008	-34257	0.1093	6022.9	
342.50	2.186	2.016	-34267	0.1093	6048.1	
342.60	2.187	2.024	-34277	0.1094	6071.2	
342.70	2.188	2.032	-34289	0.1094	6094.8	
342.80	2.189	2.037	-34298	0.1094	6110.0	
342.90	2.197	1.996	-34276	0.1098	5989.2	
343.00	2.201	1.981	-34274	0.1101	5943.8	
343.10	2.202	1.989	-34281	0.1101	5968.3	
343.20	2.203	1.998	-34288	0.1101	5994.1	
343.30	2.203	2.007	-34295	0.1102	6019.8	
343.40	2.204	2.015	-34302	0.1102	6044.4	
343.50	2.204	2.023	-34309	0.1102	6070.0	
343.60	2.205	2.031	-34316	0.1103	6092.2	
343.70	2.206	2.037	-34321	0.1103	6111.9	
343.80	2.213	2.004	-34302	0.1106	6013.0	
343.90	2.219	1.980	-34296	0.1109	5938.8	
344.00	2.219	1.988	-34303	0.1110	5963.8	
344.10	2.220	1.996	-34309	0.1110	5988.6	
344.20	2.221	2.005	-34316	0.1110	6014.2	
344.30	2.221	2.013	-34323	0.1111	6039.4	
344.40	2.222	2.021	-34330	0.1111	6063.0	
344.50	2.222	2.029	-34337	0.1111	6087.0	
344.60	2.223	2.036	-34344	0.1112	6108.4	
344.70	2.225	2.036	-34346	0.1112	6108.8	
344.80	2.234	1.988	-34324	0.1117	5964.4	
344.90	2.237	1.983	-34326	0.1118	5949.5	
345.00	2.238	1.992	-34333	0.1119	5976.6	
345.10	2.238	2.001	-34339	0.1119	6001.6	
345.20	2.239	2.009	-34346	0.1119	6027.1	
345.30	2.239	2.018	-34353	0.1120	6052.7	
345.40	2.240	2.025	-34359	0.1120	6076.4	
345.50	2.241	2.033	-34367	0.1120	6100.1	
345.60	2.242	2.039	-34373	0.1121	6118.3	
345.70	2.245	2.031	-34371	0.1123	6092.4	
345.80	2.248	2.024	-34376	0.1124	6072.6	
345.90	2.250	2.027	-34382	0.1125	6081.7	
346.00	2.251	2.031	-34387	0.1126	6093.0	
346.10	2.253	2.032	-34390	0.1127	6095.4	
346.20	2.256	2.028	-34388	0.1128	6083.1	
346.30	2.259	2.025	-34388	0.1130	6073.8	
346.40	2.261	2.027	-34391	0.1130	6080.3	
346.50	2.262	2.030	-34394	0.1131	6090.9	
346.60	2.265	2.025	-34371	0.1133	6075.5	
346.70	2.270	2.009	-34350	0.1135	6027.6	
346.80	2.272	2.007	-34357	0.1136	6021.3	
346.90	2.274	2.011	-34362	0.1137	6031.9	
347.00	2.275	2.016	-34367	0.1137	6047.5	
347.10	2.276	2.020	-34373	0.1138	6061.1	
347.20	2.278	2.024	-34378	0.1139	6072.5	
347.30	2.281	2.015	-34370	0.1141	6045.9	
347.40	2.289	1.979	-34348	0.1145	5936.7	
347.50	2.291	1.979	-34351	0.1146	5937.6	
347.60	2.292	1.987	-34357	0.1146	5961.0	
347.70	2.293	1.995	-34363	0.1146	5984.9	
347.80	2.294	2.003	-34369	0.1147	6009.6	
347.90	2.294	2.011	-34375	0.1147	6032.4	
348.00	2.295	2.018	-34381	0.1147	6055.3	
348.10	2.295	2.025	-34387	0.1148	6076.2	
348.20	2.296	2.031	-34392	0.1148	6093.6	
348.30	2.301	2.014	-34379	0.1151	6041.0	
348.40	2.310	1.976	-34364	0.1155	5926.7	
348.50	2.311	1.981	-34370	0.1156	5942.0	
348.60	2.312	1.989	-34376	0.1156	5967.2	
348.70	2.312	1.997	-34382	0.1156	5991.0	
348.80	2.313	2.006	-34388	0.1156	6017.2	
348.90	2.313	2.014	-34393	0.1157	6040.8	
349.00	2.314	2.021	-34399	0.1157	6064.5	
349.10	2.315	2.029	-34404	0.1157	6087.1	
349.20	2.316	2.032	-34403	0.1158	6096.1	
349.30	2.326	1.988	-34379	0.1163	5963.1	
349.40	2.330	1.979	-34379	0.1165	5935.7	
349.50	2.330	1.987	-34386	0.1165	5961.4	
349.60	2.331	1.996	-34392	0.1165	5986.8	
349.70	2.331	2.004	-34397	0.1166	6010.9	
349.80	2.332	2.012	-34402	0.1166	6036.8	
349.90	2.333	2.020	-34406	0.1166	6059.5	
350.00	2.333	2.027	-34409	0.1167	6082.4	
350.10	2.334	2.034	-34407	0.1167	6102.2	
350.20	2.340	2.011	-34429	0.1170	6033.5	
350.30	2.347	1.981	-34470	0.1174	5941.6	
350.40	2.349	1.987	-34486	0.1174	5959.9	
350.50	2.349	1.995	-34499	0.1175	5984.6	
350.60	2.350	2.003	-34513	0.1175	6009.3	
350.70	2.350	2.011	-34528	0.1175	6033.8	
350.80	2.351	2.019	-34547	0.1175	6058.5	
350.90	2.352	2.027	-34570	0.1176	6081.4	
351.00	2.353	2.034	-34606	0.1176	6101.6	
351.10	2.356	2.027	-34995	0.1178	6082.0	
351.20	2.365	1.984	-35736	0.1182	5953.5	
351.30	2.367	1.986	-35817	0.1184	5957.3	
351.40	2.368	1.994	-35839	0.1184	5982.0	
351.50	2.368	2.002	-35861	0.1184	6006.8	
351.60	2.369	2.011	-35883	0.1185	6031.6	
351.70	2.369	2.018	-35908	0.1185	6054.9	
351.80	2.370	2.026	-35938	0.1185	6078.6	
351.90	2.371	2.033	-35982	0.1186	6099.5	
352.00	2.372	2.038	-36101	0.1186	6114.3	
352.10	2.380	2.005	-37489	0.1190	6013.8	
352.20	2.386	1.983	-38090	0.1193	5949.4	
352.30	2.386	1.991	-38121	0.1193	5972.3	
352.40	2.387	1.999	-38152	0.1194	5996.6	
352.50	2.388	2.007	-38177	0.1194	6021.8	
352.60	2.389	2.016	-38202	0.1194	6047.2	
352.70	2.389	2.023	-38228	0.1195	6070.1	
352.80	2.390	2.031	-38258	0.1195	6093.6	
352.90	2.391	2.037	-38302	0.1196	6112.3	
353.00	2.393	2.040	-38427	0.1196	6119.1	
353.10	2.400	2.004	-39294	0.1200	6013.2	
353.20	2.406	1.987	-39651	0.1203	5960.2	
353.30	2.407	1.994	-39692	0.1203	5982.7	
353.40	2.407	2.002	-39726	0.1204	6006.0	
353.50	2.408	2.010	-39756	0.1204	6030.1	
353.60	2.409	2.018	-39786	0.1204	6053.8	
353.70	2.410	2.025	-39817	0.1205	6076.1	
353.80	2.410	2.033	-39857	0.1205	6097.9	
353.90	2.411	2.038	-39939	0.1206	6113.6	
354.00	2.418	2.009	-41084	0.1209	6027.7	
354.10	2.425	1.983	-41755	0.1212	5947.5	
354.20	2.426	1.989	-41795	0.1213	5966.7	
354.30	2.427	1.997	-41827	0.1213	5992.3	
354.40	2.428	2.006	-41851	0.1214	6017.2	
354.50	2.428	2.014	-41874	0.1214	6041.2	
354.60	2.429	2.022	-41897	0.1214	6065.8	
354.70	2.430	2.029	-41922	0.1215	6087.7	
354.80	2.431	2.036	-41954	0.1215	6107.9	
354.90	2.434	2.026	-42077	0.1217	6077.9	
355.00	2.443	1.986	-42278	0.1221	5959.1	
355.10	2.445	1.989	-42318	0.1222	5966.4	
355.20	2.445	1.997	-42340	0.1223	5990.4	
355.30	2.446	2.005	-42360	0.1223	6015.6	
355.40	2.447	2.014	-42380	0.1223	6040.8	
355.50	2.447	2.021	-42402	0.1224	6064.0	
355.60	2.448	2.029	-42427	0.1224	6086.5	
355.70	2.449	2.034	-42458	0.1225	6103.0	
355.80	2.454	2.015	-42476	0.1227	6045.7	
355.90	2.461	1.986	-42476	0.1231	5958.7	
356.00	2.462	1.991	-42485	0.1231	5973.5	
356.10	2.463	1.999	-42494	0.1232	5997.7	
356.20	2.464	2.007	-42504	0.1232	6021.5	
356.30	2.465	2.015	-42514	0.1232	6045.4	
356.40	2.465	2.023	-42523	0.1233	6068.4	
356.50	2.466	2.029	-42532	0.1233	6088.1	
356.60	2.467	2.032	-42540	0.1234	6097.0	
356.70	2.471	2.020	-42547	0.1235	6059.6	
356.80	2.473	2.015	-42557	0.1236	6046.3	
356.90	2.474	2.017	-42567	0.1237	6052.5	
357.00	2.477	2.017	-42555	0.1238	6049.9	
357.10	2.485	1.975	-42508	0.1242	5926.2	
357.20	2.488	1.967	-42506	0.1244	5901.6	
357.30	2.489	1.975	-42512	0.1245	5925.7	
357.40	2.490	1.983	-42518	0.1245	5950.1	
357.50	2.490	1.991	-42523	0.1245	5974.5	
357.60	2.491	2.000	-42528	0.1246	5999.4	
357.70	2.492	2.008	-42531	0.1246	6023.1	
357.80	2.493	2.015	-42532	0.1246	6044.7	
357.90	2.494	2.020	-42518	0.1247	6060.5	
358.00	2.498	2.004	-42472	0.1249	6012.4	
358.10	2.505	1.973	-42460	0.1253	5918.8	
358.20	2.507	1.977	-42472	0.1253	5930.0	
358.30	2.507	1.985	-42482	0.1254	5953.7	
358.40	2.508	1.993	-42493	0.1254	5978.6	
358.50	2.509	2.001	-42505	0.1254	6001.5	
358.60	2.509	2.009	-42519	0.1255	6025.6	
358.70	2.510	2.016	-42535	0.1255	6046.6	
358.80	2.511	2.021	-42554	0.1256	6062.0	
358.90	2.517	1.993	-42551	0.1259	5977.6	
359.00	2.524	1.965	-42545	0.1262	5894.7	
359.10	2.525	1.972	-42552	0.1262	5915.2	
359.20	2.526	1.980	-42558	0.1263	5940.1	
359.30	2.526	1.988	-42565	0.1263	5964.5	
359.40	2.527	1.997	-42572	0.1263	5990.0	
359.50	2.528	2.005	-42578	0.1264	6013.6	
359.60	2.528	2.012	-42583	0.1264	6036.7	
359.70	2.529	2.019	-42586	0.1265	6055.9	
359.80	2.531	2.016	-42571	0.1266	6048.4	
359.90	2.540	1.975	-42536	0.1270	5924.7	
360.00	2.543	1.969	-42543	0.1271	5908.0	
360.10	2.544	1.977	-42554	0.1272	5931.2	
360.20	2.544	1.985	-42565	0.1272	5955.3	
360.30	2.545	1.993	-42576	0.1272	5978.5	
360.40	2.545	2.001	-42589	0.1273	6002.8	
360.50	2.546	2.009	-42603	0.1273	6025.7	
360.60	2.547	2.015	-42623	0.1274	6045.2	
360.70	2.550	2.006	-42637	0.1275	6018.2	
360.80	2.558	1.966	-42628	0.1279	5897.8	
360.90	2.560	1.968	-42633	0.1280	5904.3	
361.00	2.561	1.976	-42640	0.1280	5928.3	
361.10	2.561	1.984	-42647	0.1281	5952.9	
361.20	2.562	1.993	-42654	0.1281	5978.1	
361.30	2.563	2.001	-42660	0.1281	6002.1	
361.40	2.564	2.009	-42666	0.1282	6025.9	
361.50	2.565	2.015	-42668	0.1282	6045.1	
361.60	2.568	1.999	-42633	0.1284	5996.9	
361.70	2.575	1.965	-42603	0.1288	5894.6	
361.80	2.577	1.969	-42609	0.1289	5907.1	
361.90	2.578	1.977	-42618	0.1289	5931.9	
362.00	2.578	1.985	-42626	0.1289	5956.1	
362.10	2.579	1.993	-42635	0.1290	5980.2	
362.20	2.580	2.001	-42645	0.1290	6004.5	
362.30	2.580	2.009	-42655	0.1290	6026.2	
362.40	2.582	2.012	-42663	0.1291	6034.5	
362.50	2.590	1.971	-42647	0.1295	5911.8	
362.60	2.593	1.962	-42648	0.1297	5885.8	
362.70	2.594	1.970	-42655	0.1297	5910.8	
362.80	2.595	1.978	-42661	0.1297	5934.4	
362.90	2.595	1.986	-42667	0.1298	5959.2	
363.00	2.596	1.995	-42673	0.1298	5983.6	
363.10	2.597	2.002	-42679	0.1298	6006.8	
363.20	2.598	2.009	-42680	0.1299	6027.2	
363.30	2.603	1.987	-42642	0.1301	5962.3	
363.40	2.609	1.959	-42620	0.1305	5877.6	
363.50	2.610	1.965	-42627	0.1305	5895.2	
363.60	2.611	1.973	-42634	0.1306	5919.0	
363.70	2.612	1.981	-42641	0.1306	5944.3	
363.80	2.612	1.989	-42649	0.1306	5967.5	
363.90	2.613	1.997	-42657	0.1307	5991.3	
364.00	2.614	2.004	-42666	0.1307	6012.4	
364.10	2.617	1.995	-42665	0.1308	5986.2	
364.20	2.625	1.958	-42653	0.1312	5873.7	
364.30	2.626	1.959	-42657	0.1313	5878.5	
364.40	2.627	1.968	-42664	0.1314	5904.0	
364.50	2.628	1.976	-42670	0.1314	5929.1	
364.60	2.628	1.984	-42676	0.1314	5952.6	
364.70	2.629	1.992	-42682	0.1315	5977.5	
364.80	2.630	1.999	-42684	0.1315	5998.5	
364.90	2.633	1.992	-42663	0.1316	5976.4	
365.00	2.641	1.954	-42628	0.1320	5861.7	
365.10	2.643	1.955	-42631	0.1321	5864.8	
365.20	2.643	1.963	-42638	0.1322	5890.1	
365.30	2.644	1.972	-42644	0.1322	5914.9	
365.40	2.645	1.980	-42651	0.1322	5939.0	
365.50	2.645	1.988	-42658	0.1323	5963.5	
365.60	2.646	1.995	-42665	0.1323	5984.5	
365.70	2.649	1.990	-42664	0.1324	5970.1	
365.80	2.657	1.952	-42650	0.1328	5854.8	
365.90	2.659	1.952	-42655	0.1329	5855.1	
366.00	2.660	1.960	-42661	0.1330	5880.2	
366.10	2.660	1.969	-42667	0.1330	5905.6	
366.20	2.661	1.977	-42673	0.1331	5931.0	
366.30	2.662	1.985	-42678	0.1331	5955.0	
366.40	2.663	1.992	-42680	0.1331	5974.7	
366.50	2.668	1.970	-42649	0.1334	5909.9	
366.60	2.674	1.944	-42632	0.1337	5832.3	
366.70	2.675	1.950	-42638	0.1337	5850.1	
366.80	2.675	1.958	-42643	0.1338	5873.0	
366.90	2.676	1.966	-42650	0.1338	5897.8	
367.00	2.677	1.974	-42656	0.1339	5923.0	
367.10	2.678	1.982	-42662	0.1339	5945.6	
367.20	2.679	1.987	-42667	0.1339	5961.2	
367.30	2.686	1.954	-42653	0.1343	5860.7	
367.40	2.690	1.940	-42652	0.1345	5821.3	
367.50	2.691	1.948	-42658	0.1345	5844.4	
367.60	2.691	1.956	-42664	0.1346	5867.7	
367.70	2.692	1.964	-42670	0.1346	5892.8	
367.80	2.693	1.973	-42676	0.1346	5917.9	
367.90	2.694	1.980	-42679	0.1347	5940.0	
368.00	2.697	1.967	-42657	0.1349	5900.6	
368.10	2.704	1.935	-42636	0.1352	5806.1	
368.20	2.706	1.940	-42640	0.1353	5818.8	
368.30	2.706	1.948	-42646	0.1353	5842.6	
368.40	2.707	1.956	-42652	0.1353	5866.6	
368.50	2.708	1.964	-42658	0.1354	5892.4	
368.60	2.709	1.972	-42664	0.1354	5916.0	
368.70	2.711	1.971	-42664	0.1355	5911.9	
368.80	2.718	1.934	-42649	0.1359	5802.3	
368.90	2.721	1.932	-42653	0.1360	5797.5	
369.00	2.721	1.941	-42659	0.1361	5821.8	
369.10	2.722	1.948	-42665	0.1361	5844.2	
369.20	2.722	1.956	-42671	0.1361	5868.8	
369.30	2.723	1.964	-42676	0.1362	5893.0	
369.40	2.725	1.969	-42674	0.1362	5907.4	
369.50	2.731	1.936	-42643	0.1366	5808.1	
369.60	2.735	1.924	-42639	0.1368	5772.5	
369.70	2.736	1.932	-42645	0.1368	5795.8	
369.80	2.737	1.940	-42651	0.1368	5820.5	
369.90	2.737	1.948	-42657	0.1369	5844.6	
370.00	2.738	1.957	-42663	0.1369	5869.7	
370.10	2.739	1.962	-42668	0.1370	5885.6	
370.20	2.745	1.934	-42655	0.1373	5801.8	
370.30	2.750	1.920	-42652	0.1375	5759.9	
370.40	2.751	1.927	-42659	0.1375	5780.9	
370.50	2.751	1.935	-42665	0.1376	5806.2	
370.60	2.752	1.943	-42670	0.1376	5830.3	
370.70	2.753	1.951	-42676	0.1376	5853.6	
370.80	2.754	1.953	-42670	0.1377	5859.4	
370.90	2.761	1.919	-42644	0.1381	5758.2	
371.00	2.764	1.914	-42644	0.1382	5742.9	
371.10	2.765	1.922	-42651	0.1382	5766.6	
371.20	2.766	1.930	-42657	0.1383	5791.2	
371.30	2.766	1.939	-42663	0.1383	5815.9	
371.40	2.767	1.946	-42668	0.1383	5837.9	
371.50	2.770	1.940	-42665	0.1385	5819.0	
371.60	2.777	1.908	-42653	0.1388	5724.7	
371.70	2.778	1.910	-42657	0.1389	5729.5	
371.80	2.779	1.918	-42663	0.1390	5752.9	
371.90	2.780	1.926	-42669	0.1390	5776.5	
372.00	2.780	1.933	-42674	0.1390	5800.4	
372.10	2.781	1.940	-42678	0.1391	5821.2	
372.20	2.785	1.928	-42659	0.1392	5784.8	
372.30	2.791	1.901	-42644	0.1395	5702.9	
372.40	2.792	1.904	-42649	0.1396	5712.7	
372.50	2.793	1.912	-42656	0.1396	5736.2	
372.60	2.794	1.920	-42662	0.1397	5760.3	
372.70	2.794	1.928	-42667	0.1397	5784.2	
372.80	2.795	1.933	-42672	0.1398	5800.0	
372.90	2.801	1.905	-42659	0.1401	5715.6	
373.00	2.805	1.894	-42657	0.1403	5681.1	
373.10	2.806	1.901	-42663	0.1403	5702.6	
373.20	2.807	1.909	-42669	0.1404	5726.2	
373.30	2.808	1.917	-42675	0.1404	5751.1	
373.40	2.808	1.924	-42679	0.1404	5773.2	
373.50	2.812	1.912	-42659	0.1406	5735.7	
373.60	2.818	1.886	-42645	0.1409	5657.1	
373.70	2.819	1.890	-42651	0.1410	5669.7	
373.80	2.820	1.898	-42657	0.1410	5695.0	
373.90	2.821	1.906	-42664	0.1410	5718.8	
374.00	2.821	1.914	-42670	0.1411	5743.0	
374.10	2.823	1.913	-42670	0.1412	5737.8	
374.20	2.830	1.883	-42657	0.1415	5648.3	
374.30	2.832	1.882	-42659	0.1416	5644.8	
374.40	2.833	1.889	-42665	0.1416	5666.7	
374.50	2.834	1.897	-42671	0.1417	5691.2	
374.60	2.834	1.905	-42676	0.1417	5714.8	
374.70	2.836	1.908	-42673	0.1418	5725.4	
374.80	2.842	1.879	-42649	0.1421	5638.1	
374.90	2.845	1.871	-42649	0.1423	5613.5	
375.00	2.846	1.878	-42655	0.1423	5635.4	
375.10	2.847	1.887	-42662	0.1423	5660.2	
375.20	2.847	1.895	-42668	0.1424	5684.3	
375.30	2.848	1.901	-42671	0.1424	5701.8	
375.40	2.854	1.875	-42658	0.1427	5624.0	
375.50	2.858	1.864	-42657	0.1429	5591.8	
375.60	2.859	1.871	-42663	0.1429	5613.1	
375.70	2.859	1.879	-42668	0.1430	5636.2	
375.80	2.860	1.887	-42674	0.1430	5660.7	
375.90	2.861	1.891	-42671	0.1431	5674.2	
376.00	2.867	1.864	-42647	0.1434	5591.9	
376.10	2.870	1.856	-42647	0.1435	5568.3	
376.20	2.871	1.863	-42653	0.1436	5590.1	
376.30	2.872	1.872	-42660	0.1436	5614.8	
376.40	2.873	1.880	-42666	0.1436	5638.7	
376.50	2.874	1.880	-42666	0.1437	5640.9	
376.60	2.881	1.850	-42652	0.1440	5550.9	
376.70	2.883	1.848	-42654	0.1442	5542.8	
376.80	2.884	1.855	-42660	0.1442	5566.2	
376.90	2.885	1.863	-42666	0.1442	5590.3	
377.00	2.886	1.871	-42670	0.1443	5614.2	
377.10	2.888	1.870	-42661	0.1444	5608.7	
377.20	2.894	1.840	-42642	0.1447	5520.5	
377.30	2.896	1.840	-42645	0.1448	5520.6	
377.40	2.896	1.848	-42652	0.1448	5544.1	
377.50	2.897	1.856	-42658	0.1448	5567.4	
377.60	2.898	1.863	-42663	0.1449	5590.4	
377.70	2.901	1.855	-42654	0.1450	5564.5	
377.80	2.906	1.830	-42644	0.1453	5489.7	
377.90	2.908	1.833	-42649	0.1454	5499.8	
378.00	2.909	1.841	-42655	0.1454	5523.4	
378.10	2.909	1.849	-42661	0.1455	5548.3	
378.20	2.910	1.855	-42661	0.1455	5565.6	
378.30	2.916	1.830	-42639	0.1458	5490.8	
378.40	2.919	1.820	-42636	0.1460	5459.0	
378.50	2.920	1.827	-42643	0.1460	5480.8	
378.60	2.921	1.835	-42649	0.1460	5505.5	
378.70	2.922	1.843	-42654	0.1461	5528.7	
378.80	2.924	1.840	-42649	0.1462	5518.7	
378.90	2.930	1.812	-42637	0.1465	5435.6	
379.00	2.932	1.813	-42641	0.1466	5438.9	
379.10	2.932	1.821	-42647	0.1466	5463.8	
379.20	2.933	1.829	-42652	0.1467	5487.8	
379.30	2.934	1.835	-42652	0.1467	5506.1	
379.40	2.940	1.810	-42629	0.1470	5429.4	
379.50	2.943	1.800	-42628	0.1472	5400.5	
379.60	2.944	1.808	-42634	0.1472	5423.4	
379.70	2.944	1.816	-42640	0.1472	5446.8	
379.80	2.945	1.824	-42645	0.1473	5470.5	
379.90	2.948	1.814	-42635	0.1474	5443.5	
380.00	2.954	1.791	-42625	0.1477	5373.5	
380.10	2.955	1.796	-42631	0.1478	5386.9	
380.20	2.956	1.803	-42637	0.1478	5409.3	
380.30	2.956	1.811	-42642	0.1478	5433.2	
380.40	2.958	1.811	-42634	0.1479	5434.4	
380.50	2.965	1.783	-42615	0.1482	5349.7	
380.60	2.967	1.783	-42619	0.1483	5349.2	
380.70	2.967	1.791	-42625	0.1484	5372.5	
380.80	2.968	1.799	-42631	0.1484	5396.2	
380.90	2.969	1.803	-42631	0.1485	5410.4	
381.00	2.975	1.777	-42615	0.1487	5332.4	
381.10	2.978	1.772	-42616	0.1489	5315.5	
381.20	2.979	1.779	-42622	0.1489	5337.8	
381.30	2.979	1.787	-42628	0.1490	5361.1	
381.40	2.980	1.793	-42628	0.1490	5379.7	
381.50	2.986	1.769	-42605	0.1493	5306.6	
381.60	2.989	1.760	-42605	0.1494	5280.8	
381.70	2.990	1.768	-42611	0.1495	5303.2	
381.80	2.991	1.776	-42617	0.1495	5326.7	
381.90	2.991	1.782	-42619	0.1496	5345.5	
382.00	2.997	1.759	-42602	0.1498	5275.8	
382.10	3.000	1.749	-42601	0.1500	5247.4	
382.20	3.001	1.756	-42607	0.1500	5269.4	
382.30	3.002	1.764	-42613	0.1501	5293.4	
382.40	3.003	1.770	-42612	0.1501	5309.7	
382.50	3.008	1.746	-42591	0.1504	5237.6	
382.60	3.011	1.739	-42591	0.1505	5217.8	
382.70	3.012	1.747	-42597	0.1506	5239.6	
382.80	3.013	1.754	-42603	0.1506	5263.2	
382.90	3.014	1.756	-42599	0.1507	5269.1	
383.00	3.020	1.730	-42583	0.1510	5189.2	
383.10	3.022	1.728	-42586	0.1511	5184.8	
383.20	3.023	1.736	-42593	0.1512	5208.7	
383.30	3.024	1.744	-42598	0.1512	5232.0	
383.40	3.026	1.739	-42587	0.1513	5216.4	
383.50	3.032	1.716	-42574	0.1516	5146.7	
383.60	3.033	1.719	-42579	0.1517	5155.9	
383.70	3.034	1.726	-42585	0.1517	5179.5	
383.80	3.035	1.733	-42588	0.1517	5200.0	
383.90	3.039	1.717	-42572	0.1520	5150.5	
384.00	3.043	1.702	-42566	0.1522	5105.2	
384.10	3.044	1.708	-42572	0.1522	5123.5	
384.20	3.045	1.716	-42578	0.1522	5147.5	
384.30	3.046	1.719	-42576	0.1523	5157.7	
384.40	3.052	1.696	-42557	0.1526	5087.4	
384.50	3.054	1.691	-42558	0.1527	5073.5	
384.60	3.055	1.698	-42565	0.1527	5094.4	
384.70	3.056	1.705	-42569	0.1528	5116.1	
384.80	3.059	1.691	-42557	0.1530	5073.8	
384.90	3.064	1.676	-42552	0.1532	5026.9	
385.00	3.065	1.680	-42558	0.1533	5041.4	
385.10	3.066	1.686	-42560	0.1533	5059.5	
385.20	3.248	0.8471	-41733	0.1624	2541.3	
385.30	3.396	0.00745	-41280	0.1698	22.36	
385.40	3.395	0.00356	-41289	0.1698	10.67	
385.50	3.398	0.00339	-41288	0.1699	10.18	
385.60	3.400	0.00305	-41288	0.1700	9.152	
385.70	3.402	0.00316	-41289	0.1701	9.468	
385.80	3.403	0.00316	-41289	0.1702	9.481	
385.90	3.405	0.00314	-41290	0.1703	9.412	
386.00	3.408	0.00313	-41290	0.1704	9.399	
386.10	3.410	0.00313	-41290	0.1705	9.390	
386.20	3.412	0.00312	-41291	0.1706	9.373	
386.30	3.414	0.00313	-41291	0.1707	9.399	
386.40	3.416	0.00314	-41291	0.1708	9.433	
386.50	3.418	0.00315	-41291	0.1709	9.455	
386.60	3.420	0.00311	-41292	0.1710	9.343	
386.70	3.422	0.00309	-41292	0.1711	9.261	
386.80	3.424	0.00313	-41292	0.1712	9.377	
386.90	3.426	0.00315	-41292	0.1713	9.442	
387.00	3.428	0.00317	-41292	0.1714	9.511	
387.10	3.430	0.00316	-41292	0.1715	9.481	
387.20	3.432	0.00315	-41293	0.1716	9.446	
387.30	3.434	0.00314	-41293	0.1717	9.416	
387.40	3.436	0.00313	-41293	0.1718	9.403	
387.50	3.438	0.00318	-41293	0.1719	9.529	
387.60	3.440	0.00310	-41293	0.1720	9.291	
387.70	3.443	0.00314	-41293	0.1721	9.425	
387.80	3.444	0.00318	-41293	0.1722	9.537	
387.90	3.446	0.00321	-41293	0.1723	9.624	
388.00	3.449	0.00317	-41293	0.1724	9.520	
388.10	3.451	0.00316	-41293	0.1725	9.477	
388.20	3.452	0.00315	-41293	0.1726	9.442	
388.30	3.455	0.00318	-41293	0.1727	9.529	
388.40	3.457	0.00315	-41294	0.1728	9.455	
388.50	3.459	0.00318	-41294	0.1729	9.529	
388.60	3.461	0.00320	-41294	0.1730	9.602	
388.70	3.463	0.00323	-41294	0.1731	9.680	
388.80	3.465	0.00315	-41294	0.1732	9.442	
388.90	3.467	0.00315	-41294	0.1733	9.442	
389.00	3.469	0.00315	-41294	0.1734	9.451	
389.10	3.471	0.00320	-41294	0.1735	9.598	
389.20	3.473	0.00320	-41294	0.1736	9.606	
389.30	3.475	0.00317	-41294	0.1737	9.520	
389.40	3.477	0.00313	-41294	0.1738	9.399	
389.50	3.479	0.00312	-41294	0.1739	9.373	
389.60	3.481	0.00317	-41294	0.1740	9.520	
389.70	3.483	0.00324	-41294	0.1741	9.706	
389.80	3.485	0.00313	-41294	0.1742	9.399	
389.90	3.487	0.00316	-41295	0.1743	9.481	
390.00	3.489	0.00315	-41294	0.1744	9.464	
390.10	3.491	0.00330	-41295	0.1745	9.909	
390.20	3.493	0.00319	-41295	0.1746	9.580	
390.30	3.495	0.00324	-41295	0.1747	9.727	
390.40	3.497	0.00333	-41295	0.1748	9.987	
390.50	3.499	0.00321	-41295	0.1749	9.615	
390.60	3.501	0.00318	-41295	0.1750	9.550	
390.70	3.503	0.00318	-41295	0.1751	9.555	
390.80	3.505	0.00320	-41295	0.1752	9.598	
390.90	3.507	0.00317	-41295	0.1753	9.520	
391.00	3.509	0.00321	-41295	0.1754	9.637	
391.10	3.511	0.00307	-41295	0.1755	9.209	
391.20	3.512	0.00328	-41295	0.1756	9.836	
391.30	3.512	0.00347	-41295	0.1756	10.42	
391.40	3.512	0.00331	-41295	0.1756	9.944	
391.50	3.512	0.00326	-41295	0.1756	9.788	
391.60	3.512	0.00326	-41295	0.1756	9.792	
391.70	3.513	0.00329	-41295	0.1756	9.874	
391.80	3.513	0.00318	-41295	0.1756	9.555	
391.90	3.513	0.00323	-41296	0.1756	9.702	
392.00	3.513	0.00323	-41295	0.1756	9.676	
392.10	3.513	0.00327	-41295	0.1756	9.810	
392.20	3.513	0.00317	-41296	0.1756	9.516	
392.30	3.513	0.00314	-41296	0.1756	9.412	
392.40	3.513	0.00313	-41295	0.1756	9.390	
392.50	3.513	0.00318	-41295	0.1756	9.550	
392.60	3.513	0.00316	-41296	0.1756	9.485	
392.70	3.513	0.00318	-41296	0.1756	9.529	
392.80	3.513	0.00316	-41296	0.1756	9.490	
392.90	3.513	0.00320	-41296	0.1756	9.602	
393.00	3.513	0.00317	-41296	0.1756	9.507	
393.10	3.513	0.00317	-41296	0.1756	9.503	
393.20	3.513	0.00314	-41296	0.1756	9.433	
393.30	3.513	0.00314	-41296	0.1756	9.429	
393.40	3.513	0.00316	-41296	0.1756	9.472	
393.50	3.513	0.00308	-41296	0.1756	9.252	
393.60	3.513	0.00314	-41296	0.1756	9.421	
393.70	3.513	0.00333	-41296	0.1756	10.00	
393.80	3.513	0.00325	-41296	0.1756	9.736	